['ignore', 'EgoAccelerationX', 'EgoAccelerationY', 'egoAccelerationZ', 'egoSpeed', 'attackTime', 'ignore']
[0, 2.3551454585031916e-09, -0.012316057253194512, 0.0008875320568705016, 0.1425554603536299, 0, 0]
[0, 2.34053208490917e-09, -0.012244686280053303, 0.0008820248598009877, 0.2854091165743781, 0, 0]
[0, 2.3361171181570594e-09, -0.012220771360905703, 0.0008803608401477708, 0.42826339923596296, 0, 0]
[0, 2.3358565541686697e-09, -0.012217144088196612, 0.0008802624520315809, 0.571117684406557, 0, 0]
[0, 2.3372103044651926e-09, -0.01222133499169391, 0.0008807739085534511, 0.7139719700907299, 0, 0]
[0, 2.62238035885782e-05, 6.189797222832135, 9.882387927879122, 0.8568262559702273, 0, 0]
[0, 1.2040382732513622e-06, 3.904753485386889, 0.4537394152659314, 0.9463859505375788, 0, 0]
[0, 2.549403075945856e-05, 8.441354362441743, 9.607374553731011, 1.1424307483685177, 0, 0]
[0, 2.3770160123507618e-05, 8.654736836677937, 8.957737124025519, 1.2330257838621028, 0, 0]
[0, 1.975528161202271e-05, 10.380627692458464, 7.444738288635087, 1.3816401976171888, 0, 0]
[0, 1.575849863914352e-05, 11.986538716387514, 5.938558733208334, 1.5322167358932264, 0, 0]
[0, 1.2747917778523013e-05, 13.337377665586107, 4.804027711274238, 1.6828150447206365, 0, 0]
[0, 1.0935207293420513e-05, 14.409348101103388, 4.120911250612617, 1.8315453962680928, 0, 0]
[0, 1.0133662296112287e-05, 15.224668776103078, 3.8188503488469263, 1.9779634627915483, 0, 0]
[0, 1.0016730252242665e-05, 15.82193787410176, 3.774784964191881, 2.122412490115144, 0, 0]
[0, 1.0269994189312365e-05, 16.239296593166756, 3.870226756099235, 2.265517966939692, 0, 0]
[0, 1.065835473089063e-05, 16.507200724051295, 4.016579590426763, 2.40788850156261, 0, 0]
[0, 1.1038460601575896e-05, 16.647245609778267, 4.159821806638695, 2.549982094277313, 0, 0]
[0, 1.1343007167238097e-05, 16.673992231981412, 4.274589586538721, 2.6920798542398594, 0, 0]
[0, 1.1555733281147407e-05, 16.59769070109239, 4.3547549259953096, 2.8343153208194973, 0, 0]
[0, 1.1687946263044077e-05, 16.42672592054933, 4.4045791363393905, 2.9767225479255797, 0, 0]
[0, 1.1761206516056412e-05, 16.16931102738441, 4.432187195049904, 3.119281624267885, 0, 0]
[0, 1.1796875814876919e-05, 15.834387088333141, 4.445629077000532, 3.261952406629857, 0, 0]
[0, 1.1811266856291331e-05, 15.431896816527406, 4.45105234520584, 3.404694952034231, 0, 0]
[0, 1.1814521196426559e-05, 14.97265810133095, 4.452279035610463, 3.547479030862605, 0, 0]
[0, 1.1811492645092409e-05, 14.468038152975765, 4.451136665305238, 3.690286344419238, 0, 0]
[0, 1.1803348199195587e-05, 13.92957158799662, 4.448069247750281, 3.8331088051903923, 0, 0]
[0, 1.1789225051155222e-05, 13.368606540397138, 4.442744469130486, 3.975945341805515, 0, 0]
[0, 1.1767413662442597e-05, 12.796016400574915, 4.434526106437663, 4.118798711222867, 0, 0]
[0, 1.1736247441810344e-05, 12.221984794193324, 4.422781225665545, 4.261673008735673, 0, 0]
[0, 1.1694489493986418e-05, 11.655855829303368, 4.407044826423482, 4.40457204328285, 0, 0]
[0, 1.1641520683791599e-05, 11.106036184608053, 4.387083676438011, 4.547498466603306, 0, 0]
[0, 1.1577347403697628e-05, 10.579935979290873, 4.362900125772265, 4.690453442347593, 0, 0]
[0, 1.1502533665132684e-05, 10.083938240948546, 4.334706799559998, 4.8334366433177465, 0, 0]
[0, 1.1418112422202088e-05, 9.623390073333926, 4.30289145871345, 4.976446414249439, 0, 0]
[0, 1.1325468957064224e-05, 9.202611278087122, 4.267981697616438, 5.1194799965594795, 0, 0]
[0, 1.1226309544381218e-05, 8.824917884337767, 4.230612772626522, 5.262533760882925, 0, 0]
[0, 1.1122517620140807e-05, 8.492658883889485, 4.191498507267038, 5.405603426339448, 0, 0]
[0, 1.1016124625620426e-05, 8.207264716695892, 4.151404080552407, 5.548684263229161, 0, 0]
[0, 1.0909224412155656e-05, 7.969305977617236, 4.111119644400756, 5.691771282378062, 0, 0]
[0, 1.0803918512732097e-05, 7.778560638630365, 4.071434377092828, 5.834859414324855, 0, 0]
[0, 1.0702224359253964e-05, 7.634087931537982, 4.033111284114938, 5.977943678825835, 0, 0]
[0, 1.0606034158427478e-05, 7.5343069807372185, 3.9968635445545164, 6.121019342175504, 0, 0]
[0, 1.0517061580554335e-05, 7.47707832226966, 3.9633334066787973, 6.264082057928995, 0, 0]
[0, 1.043676683014441e-05, 7.459786577379025, 3.9330745924818973, 6.4071279860685575, 0, 0]
[0, 1.0366351542121307e-05, 7.479422738472191, 3.9065389481757435, 6.55015388631891, 0, 0]
[0, 1.0306722891155055e-05, 7.532664741352074, 3.8840677705814928, 6.693157182798501, 0, 0]
[0, 1.0258480684121041e-05, 7.615955219533492, 3.86588790643924, 6.836135999010908, 0, 0]
[0, 1.0221926098869659e-05, 7.725575545614171, 3.852112421368937, 6.979089164030974, 0, 0]
[0, 1.0197072497164307e-05, 7.85771545498843, 3.8427453854031612, 7.122016192322605, 0, 0]
[0, 1.018365517271032e-05, 8.008537712349344, 3.837690143197516, 7.264917240860776, 0, 0]
[0, 1.0181188272019168e-05, 8.174237422789066, 3.8367603254835694, 7.407793048025015, 0, 0]
[0, 1.018896965931241e-05, 8.351095708436496, 3.839692808829964, 7.550644859124904, 0, 0]
[0, 1.020613578703047e-05, 8.535527570924948, 3.8461618377085047, 7.693474343450877, 0, 0]
[0, 1.0231700454622677e-05, 8.724123843767172, 3.8557935712144835, 7.836283507471739, 0, 0]
[0, 1.0264557830716842e-05, 8.913687208725774, 3.8681804031801064, 7.979074608309458, 0, 0]
[0, 1.030360644727937e-05, 9.101262311446257, 3.8828945100415857, 8.121850070957855, 0, 0]
[0, 1.034767268538659e-05, 9.284160064785205, 3.899500203449308, 8.264612411972896, 0, 0]
[0, 1.0395609789846569e-05, 9.459976276641504, 3.9175647911533407, 8.407364171576056, 0, 0]
[0, 1.0446304967949898e-05, 9.62660478464461, 3.93666777091101, 8.550107855350774, 0, 0]
[0, 1.0498686563002293e-05, 9.78224532205054, 3.9564082986915245, 8.692845886020196, 0, 0]
[0, 1.055176430065075e-05, 9.92540638168401, 3.976410965411221, 8.835580565172885, 0, 0]
[0, 1.06046182276438e-05, 10.054903383922587, 3.9963299980401423, 8.97831404433646, 0, 0]
[0, 1.0656428685801566e-05, 10.169852492983466, 4.015852057355319, 9.121048304427795, 0, 0]
[0, 1.070642913551688e-05, 10.269660461967504, 4.034697838511557, 9.263785142382238, 0, 0]
[0, 1.0753996389033864e-05, 10.354010918637469, 4.052622698168832, 9.406526163673995, 0, 0]
[0, 1.0798561422548888e-05, 10.422847531762264, 4.069416528373091, 9.549272779434721, 0, 0]
[0, 1.0839656969263474e-05, 10.476354519491842, 4.0849030808371944, 9.69202620697963, 0, 0]
[0, 1.087690516824836e-05, 10.514934976465662, 4.098938916105499, 9.834787472712252, 0, 0]
[0, 1.0910000365358531e-05, 10.539187502833052, 4.111412121289423, 9.977557416589123, 0, 0]
[0, 1.093873565520615e-05, 10.549881618500974, 4.1222408985311185, 10.120336697531448, 0, 0]
[0, 1.0962965394422255e-05, 10.547932435694346, 4.1313720937228995, 10.263125799410181, 0, 0]
[0, 1.0982623891737933e-05, 10.534375045729826, 4.138779700735772, 10.405925037411507, 0, 0]
[0, 1.0997708204730782e-05, 10.510339050857493, 4.14446334819721, 10.548734564757973, 0, 0]
[0, 1.100827439034283e-05, 10.477023639184983, 4.148446757535108, 10.69155437988936, 0, 0]
[0, 1.1014456397762414e-05, 10.435673563152394, 4.1507761462390835, 10.834384334270382, 0, 0]
[0, 1.1016429601325843e-05, 10.387556339056369, 4.1515185447679, 10.977224141034817, 0, 0]
[0, 1.1014413019598338e-05, 10.333940938868146, 4.150759997333778, 11.120073384663165, 0, 0]
[0, 1.1008691016882434e-05, 10.276078198159075, 4.148603620574916, 11.262931531845128, 0, 0]
[0, 1.099957288374205e-05, 10.21518311488659, 4.1451675062084945, 11.405797943620284, 0, 0]
[0, 1.0987409212155775e-05, 10.152419166166798, 4.140582465451721, 11.548671888799376, 0, 0]
[0, 1.0972567174891531e-05, 10.088884724361902, 4.134989625534663, 11.691552558582911, 0, 0]
[0, 1.095544679089037e-05, 10.025601610059551, 4.1285379036489, 11.834439082211585, 0, 0]
[0, 1.09364571301112e-05, 9.963505779913188, 4.121381394532211, 11.977330543398413, 0, 0]
[0, 1.0916008674716683e-05, 9.90344011171485, 4.113676716920678, 12.120225997232167, 0, 0]
[0, 1.0894524923115752e-05, 9.84614921726207, 4.105580372294343, 12.263124487202477, 0, 0]
[0, 1.0872413099253564e-05, 9.792276186970774, 4.09724617186349, 12.406025061964598, 0, 0]
[0, 1.0850059075081633e-05, 9.742361148122441, 4.088822787699435, 12.548926791463325, 0, 0]
[0, 1.0827842308305207e-05, 9.696841500239469, 4.080451483336113, 12.691828782054792, 0, 0]
[0, 1.0806120084668444e-05, 9.656053678246844, 4.072264071430077, 12.834730190289644, 0, 0]
[0, 1.0785198397906305e-05, 9.620236284138498, 4.064381139806078, 12.977630235077157, 0, 0]
[0, 1.0765375683083156e-05, 9.589534421773378, 4.0569105787587105, 13.120528208007224, 0, 0]
[0, 1.0746899829731064e-05, 9.564005067215398, 4.049946430511686, 13.263423481664088, 0, 0]
[0, 1.0729969956706666e-05, 9.543623306386468, 4.043568073945555, 13.40631551584808, 0, 0]
[0, 1.0714771262322612e-05, 9.528289275271229, 4.037839744169313, 13.549203861669957, 0, 0]
[0, 1.07014247293563e-05, 9.517835641860563, 4.0328103795154835, 13.692088163565288, 0, 0]
[0, 1.0690020612695118e-05, 9.512035475834463, 4.028513778658648, 13.834968159317897, 0, 0]
[0, 1.0680615956922094e-05, 9.510610360065817, 4.024969042232369, 13.977843678236683, 0, 0]
[0, 1.0673226064395093e-05, 9.51323860669427, 4.022181269550239, 14.12071463767152, 0, 0]
[0, 1.0667806959482225e-05, 9.519563451048024, 4.020142474666074, 14.26358103807564, 0, 0]
[0, 1.0664335741834426e-05, 9.52920110730713, 4.018832684219078, 14.406442956847137, 0, 0]
[0, 1.0662712323716483e-05, 9.541748581248356, 4.018221177818771, 14.549300541190503, 0, 0]
[0, 1.066283205528597e-05, 9.556791146956677, 4.0182678329020085, 14.692154000237476, 0, 0]
[0, 1.0664570117669647e-05, 9.57390940680265, 4.0189245354038485, 14.835003596660082, 0, 0]
[0, 1.0667797204901103e-05, 9.592685865602819, 4.020136622073158, 14.977849637998396, 0, 0]
[0, 1.0672324168724469e-05, 9.612710962287334, 4.021844321535466, 15.120692467902185, 0, 0]
[0, 1.0677997156686686e-05, 9.633588514074992, 4.023984166054058, 15.263532457471078, 0, 0]
[0, 1.0684656997437517e-05, 9.654940539831282, 4.026490349449403, 15.406369996846724, 0, 0]
[0, 1.0692094931724029e-05, 9.676411440701507, 4.029296010040019, 15.54920548719154, 0, 0]
[0, 1.0700153671388085e-05, 9.697671526481171, 4.032334422962199, 15.692039333164109, 0, 0]
[0, 1.0708676093786413e-05, 9.718419886773159, 4.035540088485272, 15.834871935973853, 0, 0]
[0, 1.0717452892031099e-05, 9.738386615090095, 4.038849707691019, 15.977703687081664, 0, 0]
[0, 1.0726349373905432e-05, 9.757334403080014, 4.042203039187149, 16.120534962589513, 0, 0]
[0, 1.0735206690268887e-05, 9.775059529538709, 4.045543634598531, 16.263366118346436, 0, 0]
[0, 1.0743909544248164e-05, 9.791392276330358, 4.048819451291528, 16.40619748578164, 0, 0]
[0, 1.075229593492991e-05, 9.80619680879919, 4.051983344860255, 16.54902936846643, 0, 0]
[0, 1.0760287255212337e-05, 9.819370563829832, 4.0549934437109725, 16.691862039389022, 0, 0]
[0, 1.076778257480418e-05, 9.830843192201632, 4.057813411488326, 16.834695738926623, 0, 0]
[0, 1.0774673557959128e-05, 9.840575105520413, 4.060412602025727, 16.977530673479524, 0, 0]
[0, 1.0780912593243057e-05, 9.848555679563074, 4.062766114499942, 17.120367014738928, 0, 0]
[0, 1.0786456121358116e-05, 9.854801167322096, 4.064854755746042, 17.263204899545908, 0, 0]
[0, 1.079125979913544e-05, 9.859352375340455, 4.066664917382225, 17.406044430296227, 0, 0]
[0, 1.0795297672192828e-05, 9.86227215587668, 4.068188377151688, 17.548885675849657, 0, 0]
[0, 1.0798582988039231e-05, 9.86364276686419, 4.069422031751476, 17.691728672885723, 0, 0]
[0, 1.0801088183903436e-05, 9.863563148766305, 4.070367571277398, 17.834573427661898, 0, 0]
[0, 1.0802844862075739e-05, 9.862146165494615, 4.071031103437916, 17.977419918114997, 0, 0]
[0, 1.0803885011905667e-05, 9.859515853015909, 4.071422736907614, 18.12026809625331, 0, 0]
[0, 1.0804236102410782e-05, 9.855804715880552, 4.071556132717634, 18.26311789078424, 0, 0]
[0, 1.0803956590635986e-05, 9.851151108060382, 4.0714480323305295, 18.405969209920706, 0, 0]
[0, 1.0803077986801241e-05, 9.845696730199933, 4.071117771462184, 18.548821944313946, 0, 0]
[0, 1.0801668046576645e-05, 9.839584271281083, 4.070586787786365, 18.69167597005748, 0, 0]
[0, 1.0799787070190314e-05, 9.832955218385877, 4.069878130016932, 18.834531151709257, 0, 0]
[0, 1.0797499923404809e-05, 9.825947853684205, 4.069015976493496, 18.977387345287795, 0, 0]
[0, 1.0794869605187047e-05, 9.818695453606383, 4.068025170005074, 19.120244401193816, 0, 0]
[0, 1.0791964748519301e-05, 9.81132470117659, 4.066930774471598, 19.263102167012043, 0, 0]
[0, 1.0788852496543936e-05, 9.803954318026108, 4.06575766028422, 19.405960490164585, 0, 0]
[0, 1.0785595455302749e-05, 9.796693919508032, 4.064530121501337, 19.54881922037289, 0, 0]
[0, 1.0782255453162243e-05, 9.789643092145607, 4.063271530129295, 19.691678211909107, 0, 0]
[0, 1.077889457442441e-05, 9.782890689963454, 4.062004029808774, 19.83453732560957, 0, 0]
[0, 1.0775561669639898e-05, 9.776514342917652, 4.0607482717853225, 19.977396430636112, 0, 0]
[0, 1.077230702951501e-05, 9.770580168530545, 4.059523193694649, 20.120255405971758, 0, 0]
[0, 1.0769184317615757e-05, 9.765142675057445, 4.058345842694601, 20.263114141646266, 0, 0]
[0, 1.0766227063477243e-05, 9.760244843018352, 4.057231242107076, 20.405972539691724, 0, 0]
[0, 1.0763469958052498e-05, 9.75591837028761, 4.056192300499568, 20.548830514828598, 0, 0]
[0, 1.0760942545278538e-05, 9.752184064374664, 4.055239762488869, 20.691687994894778, 0, 0]
[0, 1.075866722543853e-05, 9.749052365221493, 4.0543821977719645, 20.834544921024754, 0, 0]
[0, 1.0756663058976778e-05, 9.746523980629286, 4.053626026878681, 20.977401247601414, 0, 0]
[0, 1.0754933132132764e-05, 9.744590616640082, 4.052975579561682, 21.12025694199043, 0, 0]
[0, 1.0753494773882479e-05, 9.743235784836479, 4.05243318289099, 21.26311198408655, 0, 0]
[0, 1.0752343585656252e-05, 9.742435668900699, 4.051999275369309, 21.405966365687505, 0, 0]
[0, 1.0751476988023817e-05, 9.742160033310299, 4.0516725428181255, 21.548820089722135, 0, 0]
[0, 1.0750886518776154e-05, 9.742373157689284, 4.0514500722032665, 21.691673169357166, 0, 0]
[0, 1.0750561249528573e-05, 9.743034781111733, 4.051327519574358, 21.83452562700701, 0, 0]
[0, 1.075048626406707e-05, 9.744101041658597, 4.051299288770341, 21.97737749326899, 0, 0]
[0, 1.0750644189053738e-05, 9.745525398210493, 4.051358715559167, 22.120228805807148, 0, 0]
[0, 1.0751014449045094e-05, 9.747259521795746, 4.051498255627996, 22.263079608212372, 0, 0]
[0, 1.0751575654834938e-05, 9.749254146045034, 4.051709671819658, 22.405929948851036, 0, 0]
[0, 1.0752304000085655e-05, 9.751459867252548, 4.051984218002132, 22.548779879728684, 0, 0]
[0, 1.0753175878083294e-05, 9.753827885991305, 4.052312817081489, 22.691629455382717, 0, 0]
[0, 1.0754166725370788e-05, 9.756310684015313, 4.052686230052328, 22.834478731819026, 0, 0]
[0, 1.0755251931580579e-05, 9.75886263101729, 4.053095215154612, 22.9773277655118, 0, 0]
[0, 1.0756407600850866e-05, 9.761440517990312, 4.0535306740510375, 23.120176612467876, 0, 0]
[0, 1.075760999823535e-05, 9.764004014518036, 4.053983784842036, 23.263025327376536, 0, 0]
[0, 1.0758836913523827e-05, 9.766516049142256, 4.0544461202302635, 23.405873962842925, 0, 0]
[0, 1.0760067110586647e-05, 9.768943112976835, 4.054909750205481, 23.548722568715057, 0, 0]
[0, 1.076128084627862e-05, 9.771255487794377, 4.0553673289838, 23.691571191506938, 0, 0]
[0, 1.0762462720771048e-05, 9.773427400958052, 4.055812165829942, 23.83441987391927, 0, 0]
[0, 1.0763591830943302e-05, 9.775437110350833, 4.0562382800999, 23.97726865445749, 0, 0]
[0, 1.0764659579950757e-05, 9.77726692325809, 4.056640441074027, 24.120117567146213, 0, 0]
[0, 1.0765651720513806e-05, 9.778903154080616, 4.057014192225984, 24.262966641335744, 0, 0]
[0, 1.076655825949393e-05, 9.780336025760834, 4.057355862211005, 24.40581590159875, 0, 0]
[0, 1.0767371817081761e-05, 9.781559520898625, 4.057662562042737, 24.5486653677097, 0, 0]
[0, 1.0768090030569174e-05, 9.782571188364603, 4.057932170407382, 24.691515054700822, 0, 0]
[0, 1.0768699456096047e-05, 9.783371911607558, 4.058163308059963, 24.834364972990784, 0, 0]
[0, 1.0769209655559877e-05, 9.783965644998109, 4.058355302476493, 24.977215128573633, 0, 0]
[0, 1.0769615292071857e-05, 9.784359124456108, 4.058508144136648, 25.120065523265133, 0, 0]
[0, 1.0769919149707985e-05, 9.784561558552738, 4.058622435898297, 25.262916154995278, 0, 0]
[0, 1.0770123035361501e-05, 9.784584306213125, 4.058699336322345, 25.405767018137873, 0, 0]
[0, 1.0770230953772129e-05, 9.784440546607236, 4.058740499011514, 25.548618103873803, 0, 0]
[0, 1.0770251045754955e-05, 9.784144946851034, 4.058748008711648, 25.69146940057517, 0, 0]
[0, 1.0770189113478172e-05, 9.78371333250766, 4.058724315569014, 25.834320894201813, 0, 0]
[0, 1.0770050898446948e-05, 9.783162365621072, 4.058672168692702, 25.977172568708863, 0, 0]
[0, 1.0769843729960196e-05, 9.782509234402013, 4.058594550190001, 26.120024406452842, 0, 0]
[0, 1.0769581711610908e-05, 9.781771358354417, 4.058494610619779, 26.26287638859157, 0, 0]
[0, 1.076926382384421e-05, 9.780966111969654, 4.05837560694936, 26.405728495472555, 0, 0]
[0, 1.0768906872943337e-05, 9.780110569835358, 4.058240843301979, 26.548580707000358, 0, 0]
[0, 1.076851590786821e-05, 9.77922127517873, 4.058093615814388, 26.691433002991538, 0, 0]
[0, 1.076809218567428e-05, 9.778314033635988, 4.057937161697038, 26.834285363491777, 0, 0]
[0, 1.0767677593503784e-05, 9.777403733342359, 4.057774613296405, 26.977137769075313, 0, 0]
[0, 1.0767231152673835e-05, 9.77650419209454, 4.057608957282573, 27.11999020110708, 0, 0]
[0, 1.0766789690655376e-05, 9.775628031834893, 4.0574429992394485, 27.262842641971346, 0, 0]
[0, 1.0766355053479317e-05, 9.774786580220946, 4.057279333992299, 27.40569507527214, 0, 0]
[0, 1.0765933070211925e-05, 9.773989798851595, 4.0571203212322136, 27.54854748599206, 0, 0]
[0, 1.0765529384593493e-05, 9.773246237082866, 4.05696806690349, 27.691399860622862, 0, 0]
[0, 1.0765148055518183e-05, 9.772563010260095, 4.056824410157924, 27.834252187260162, 0, 0]
[0, 1.0764793421548967e-05, 9.77194580095658, 4.056690915153108, 27.977104455661802, 0, 0]
[0, 1.076447028596473e-05, 9.771398881428624, 4.056568867823969, 28.11995665728372, 0, 0]
[0, 1.076417875441385e-05, 9.77092515522283, 4.056459277811914, 28.262808785278512, 0, 0]
[0, 1.076392315077963e-05, 9.770526216318023, 4.056362883463229, 28.40566083447201, 0, 0]
[0, 1.0763706507720994e-05, 9.770202422993783, 4.056280162072362, 28.548512801314942, 0, 0]
[0, 1.0763522852558485e-05, 9.769952984953946, 4.056211341949815, 28.691364683809294, 0, 0]
[0, 1.076337499628773e-05, 9.769776060745944, 4.056156418644774, 28.83421648142412, 0, 0]
[0, 1.0763267271883707e-05, 9.76966886375978, 4.056115172806199, 28.977068194984547, 0, 0]
[0, 1.0763187051894973e-05, 9.769627774341332, 4.056087190252876, 29.119919826558903, 0, 0]
[0, 1.0763149277409012e-05, 9.769648455953865, 4.056071883591471, 29.26277137932479, 0, 0]
[0, 1.0763143923172356e-05, 9.769725973426382, 4.056068514588453, 29.405622857437994, 0, 0]
[0, 1.0763163548624393e-05, 9.769854911239067, 4.056076217462989, 29.548474265889016, 0, 0]
[0, 1.076320989108595e-05, 9.770029490255693, 4.056094022017428, 29.691325610361933, 0, 0]
[0, 1.0763282055082422e-05, 9.770243681078703, 4.056120876959431, 29.834176897092835, 0, 0]
[0, 1.0763373685836552e-05, 9.770491312797143, 4.056155672315782, 29.97702813272774, 0, 0]
[0, 1.0763482855399094e-05, 9.770766175701695, 4.056197261175352, 30.11987932419106, 0, 0]
[0, 1.0763608743503071e-05, 9.771062116901547, 4.056244480468418, 30.262730478554055, 0, 0]
[0, 1.0763745073510467e-05, 9.77137312807797, 4.0562961699361155, 30.405581602913816, 0, 0]
[0, 1.076389119251676e-05, 9.771693424452778, 4.056351189993273, 30.548432704282764, 0, 0]
[0, 1.076404367817843e-05, 9.772017514550038, 4.05640843782287, 30.69128378948583, 0, 0]
[0, 1.0764198653365066e-05, 9.772340260440412, 4.056466861442509, 30.83413486506953, 0, 0]
[0, 1.0764355957631679e-05, 9.772656928201066, 4.056525471971755, 30.976985937221638, 0, 0]
[0, 1.0764508494080947e-05, 9.772963228579867, 4.056583354007905, 31.119837011704686, 0, 0]
[0, 1.0764655086853744e-05, 9.773255347946124, 4.056639674173955, 31.26268809379855, 0, 0]
[0, 1.0764800101782419e-05, 9.773529969920727, 4.05669368742365, 31.405539188257443, 0, 0]
[0, 1.076493957950021e-05, 9.773784287905787, 4.056744741714917, 31.548390299277333, 0, 0]
[0, 1.0765060449695298e-05, 9.774016008990573, 4.056792281147356, 31.69124143047445, 0, 0]
[0, 1.0765177450429286e-05, 9.774223350107539, 4.05683584647602, 31.83409258487236, 0, 0]
[0, 1.0765284795993979e-05, 9.774405026604823, 4.056875075134287, 31.97694376490581, 0, 0]
[0, 1.0765373900045834e-05, 9.774560234299338, 4.056909699300795, 32.119794972425474, 0, 0]
[0, 1.0765451546945066e-05, 9.774688625794477, 4.056939542332431, 32.2626462087157, 0, 0]
[0, 1.0765522836537293e-05, 9.774790281519097, 4.056964514759935, 32.40549747451934, 0, 0]
[0, 1.0765574481484887e-05, 9.774865676687922, 4.05698460867651, 32.54834877006792, 0, 0]
[0, 1.0765613911518565e-05, 9.774915644661858, 4.056999891815056, 32.691200095118425, 0, 0]
[0, 1.076563967382791e-05, 9.774941337877353, 4.05701050018724, 32.83405144899163, 0, 0]
[0, 1.076565781343124e-05, 9.774944186665623, 4.057016631155132, 32.976902830620844, 0, 0]
[0, 1.0765666647495322e-05, 9.774925857155546, 4.057018535382755, 33.119754238594005, 0, 0]
[0, 1.0765653435469702e-05, 9.774888208696307, 4.057016508930452, 33.26260567120489, 0, 0]
[0, 1.0765640877597662e-05, 9.774833251561994, 4.057010885217252, 33.40545712650045, 0, 0]
[0, 1.076561839697834e-05, 9.774763105570743, 4.0570020269568525, 33.54830860233246, 0, 0]
[0, 1.0765588004760438e-05, 9.774679960113264, 4.0569903183506755, 33.69116009640253, 0, 0]
[0, 1.0765550387644197e-05, 9.774586036145573, 4.056976157448615, 33.83401160631129, 0, 0]
[0, 1.076550743282068e-05, 9.774483550427115, 4.056959949354096, 33.97686312960346, 0, 0]
[0, 1.0765460473390849e-05, 9.77437468271102, 4.056942098896699, 34.119714663806505, 0, 0]
[0, 1.0765409197859773e-05, 9.774261545689516, 4.056923004914297, 34.26256620647421, 0, 0]
[0, 1.0765352819095084e-05, 9.774146158340448, 4.056903054375542, 34.40541775521919, 0, 0]
[0, 1.0765304246729179e-05, 9.774030422580923, 4.056882617521077, 34.548269307745905, 0, 0]
[0, 1.0765248562783599e-05, 9.773916103465863, 4.056862043448526, 34.69112086187888, 0, 0]
[0, 1.0765191079560909e-05, 9.773804812925727, 4.056841656240699, 34.83397241558565, 0, 0]
[0, 1.0765140896920229e-05, 9.773697996916022, 4.056821752304465, 34.97682396699832, 0, 0]
[0, 1.0765088833317466e-05, 9.773596926134536, 4.056802597728405, 35.11967551442787, 0, 0]
[0, 1.076504641171816e-05, 9.77350268999685, 4.056784426657585, 35.26252705637759, 0, 0]
[0, 1.0764997908614819e-05, 9.77341619382745, 4.056767440073198, 35.40537859154927, 0, 0]
[0, 1.0764946801006305e-05, 9.773338158960415, 4.0567518054290685, 35.54823011884943, 0, 0]
[0, 1.0764921637466618e-05, 9.77326912563008, 4.056737656699662, 35.691081637388365, 0, 0]
[0, 1.076488699913348e-05, 9.773209458377888, 4.056725094877356, 35.833933146479175, 0, 0]
[0, 1.076485586329239e-05, 9.773159353711753, 4.056714188934159, 35.97678464563301, 0, 0]
[0, 1.0764830976598659e-05, 9.773118849656376, 4.056704977330126, 36.11963613454946, 0, 0]
[0, 1.0764809906474506e-05, 9.773087837048097, 4.056697469705104, 36.26248761310704, 0, 0]
[0, 1.0764794627790264e-05, 9.773066072134155, 4.05669164905306, 36.40533908135262, 0, 0]
[0, 1.0764784173597582e-05, 9.77305319027103, 4.05668747410969, 36.54819053948616, 0, 0]
[0, 1.0764777567933727e-05, 9.773048720512362, 4.056684881546772, 36.691041987845345, 0, 0]
[0, 1.076477491591759e-05, 9.773052100545392, 4.056683788968127, 36.83389342689226, 0, 0]
[0, 1.0764775240594265e-05, 9.773062692016198, 4.056684097489434, 36.976744857194205, 0, 0]
[0, 1.0764779957358353e-05, 9.773079795785018, 4.056685694574828, 37.119596279407475, 0, 0]
[0, 1.0764786798294306e-05, 9.773102667011152, 4.056688456757186, 37.26244769426008, 0, 0]
[0, 1.0764797293652085e-05, 9.773130529773937, 4.056692252313253, 37.40529910253843, 0, 0]
[0, 1.0764808098037268e-05, 9.773162591060904, 4.0566969439663385, 37.548150505065244, 0, 0]
[0, 1.0764823902161626e-05, 9.773198053932532, 4.056702391583516, 37.69100190269005, 0, 0]
[0, 1.0764839792380844e-05, 9.773236129917336, 4.056708454075906, 37.83385329626717, 0, 0]
[0, 1.0764859396138728e-05, 9.773276050139119, 4.056714992104473, 37.97670468665187, 0, 0]
[0, 1.0764875888251054e-05, 9.773317075518243, 4.056721869640186, 38.119556074678364, 0, 0]
[0, 1.0764894450468079e-05, 9.773358505579258, 4.056728956167571, 38.26240746115217, 0, 0]
[0, 1.0764913726317169e-05, 9.773399686222579, 4.056736127823871, 38.405258846842464, 0, 0]
[0, 1.0764932759587563e-05, 9.773440015990085, 4.056743269192922, 38.54811023246962, 0, 0]
[0, 1.0764951430765014e-05, 9.773478951261087, 4.056750274144809, 38.690961618699475, 0, 0]
[0, 1.0764969263661419e-05, 9.773516010129214, 4.05675704665791, 38.83381300613762, 0, 0]
[0, 1.0764986030859166e-05, 9.773550774992328, 4.056763501750154, 38.976664395325514, 0, 0]
[0, 1.0765002715662631e-05, 9.773582894077832, 4.056769565682117, 39.119515786734816, 0, 0]
[0, 1.0765017891663589e-05, 9.773612081790358, 4.0567751763944155, 39.262367180767306, 0, 0]
[0, 1.076503005004144e-05, 9.773638118053457, 4.0567802835321, 39.40521857775689, 0, 0]
[0, 1.0765042523836562e-05, 9.77366084682362, 4.056784847984262, 39.54806997796185, 0, 0]
[0, 1.0765053538478626e-05, 9.773680173519429, 4.056788842067967, 39.69092138157641, 0, 0]
[0, 1.076506231826965e-05, 9.773696061929893, 4.056792248798524, 39.833772788726826, 0, 0]
[0, 1.0765070232765751e-05, 9.773708530362681, 4.056795061417042, 39.9766241994753, 0, 0]
[0, 1.0765075700918347e-05, 9.77371764730687, 4.056797282651417, 40.11947561382566, 0, 0]
[0, 1.0765080252844044e-05, 9.773723526624844, 4.0567989240242355, 40.26232703172528, 0, 0]
[0, 1.0765083047379386e-05, 9.773726322492363, 4.056800004779962, 40.40517845307467, 0, 0]
[0, 1.076507829045615e-05, 9.773726223975066, 4.056800551366142, 40.54802987772745, 0, 0]
[0, 1.0765084031378984e-05, 9.773723449637053, 4.056800596144511, 40.690881305499, 0, 0]
[0, 1.0765091201091617e-05, 9.773718241985001, 4.056800176703546, 40.83373273617309, 0, 0]
[0, 1.0765078458693557e-05, 9.77371086208685, 4.0567993345908135, 40.97658416950388, 0, 0]
[0, 1.0765077080283589e-05, 9.773701584151816, 4.056798114780456, 41.11943560522539, 0, 0]
[0, 1.0765073730456134e-05, 9.773690690498556, 4.056796564344498, 41.26228704305733, 0, 0]
[0, 1.0765070577990004e-05, 9.77367846664706, 4.056794731782212, 41.40513848270599, 0, 0]
[0, 1.0765070600665497e-05, 9.773665196778294, 4.0567926661462055, 41.54798992387577, 0, 0]
[0, 1.0765053579720538e-05, 9.773651159542935, 4.056790416278598, 41.69084136626913, 0, 0]
[0, 1.0765049686266052e-05, 9.77363662428886, 4.056788030029804, 41.8336928095919, 0, 0]
[0, 1.0765046913175057e-05, 9.77362184767845, 4.056785553657032, 41.976544253561386, 0, 0]
[0, 1.0765047570884685e-05, 9.77360707078532, 4.056783031206074, 42.119395697903975, 0, 0]
[0, 1.0765023603296917e-05, 9.77359251659697, 4.05678050409543, 42.26224714236327, 0, 0]
[0, 1.0765029993148654e-05, 9.773578388016404, 4.056778010682188, 42.405098586699644, 0, 0]
[0, 1.0765011470093565e-05, 9.77356486634048, 4.056775585758372, 42.54795003069448, 0, 0]
[0, 1.0765020190106824e-05, 9.773552110077768, 4.056773260561251, 42.69080147414975, 0, 0]
[0, 1.0765006651619491e-05, 9.773540254355702, 4.056771062216276, 42.83365291689134, 0, 0]
[0, 1.0765000932793588e-05, 9.773529410504107, 4.056769014168593, 42.976504358771926, 0, 0]
[0, 1.0764998850329717e-05, 9.77351966630052, 4.056767135531609, 43.11935579966331, 0, 0]
[0, 1.0764989406251422e-05, 9.773511086297898, 4.056765441592636, 43.262207239466, 0, 0]
[0, 1.0764978863462028e-05, 9.773503712668665, 4.056763943558977, 43.40505867810346, 0, 0]
[0, 1.076498070106478e-05, 9.77349756620946, 4.056762648859986, 43.54791011552211, 0, 0]
[0, 1.0764983617164182e-05, 9.773492647616978, 4.056761561369054, 43.690761551691345, 0, 0]
[0, 1.0764986457819998e-05, 9.773488939044057, 4.056760681379518, 43.8336129866016, 0, 0]
[0, 1.0764974930446158e-05, 9.77348640567961, 4.056760006193093, 43.97646442026243, 0, 0]
[0, 1.076497297276329e-05, 9.773484997605836, 4.056759530164074, 44.119315852702556, 0, 0]
[0, 1.0764973422102151e-05, 9.773484651671929, 4.0567592450561305, 44.262167283966924, 0, 0]
[0, 1.0764974479213957e-05, 9.7734852934177, 4.056759140435661, 44.405018714112934, 0, 0]
[0, 1.0764974697153454e-05, 9.773486839064308, 4.0567592039629865, 44.5478701432133, 0, 0]
[0, 1.0764976008920535e-05, 9.773489197508619, 4.05675942157359, 44.690721571347424, 0, 0]
[0, 1.0764977574493774e-05, 9.773492272188077, 4.056759778067362, 44.83357299860715, 0, 0]
[0, 1.076497754351815e-05, 9.773495962984104, 4.056760257286249, 44.97642442508719, 0, 0]
[0, 1.0764977837264884e-05, 9.773500167992868, 4.0567608424560415, 45.11927585088894, 0, 0]
[0, 1.0764986998658051e-05, 9.773504785196913, 4.056761516510216, 45.26212727611477, 0, 0]
[0, 1.0764979900266475e-05, 9.773509714025053, 4.056762262294311, 45.404978700868966, 0, 0]
[0, 1.0764985193924043e-05, 9.773514856740992, 4.056763062936122, 45.54783012525388, 0, 0]
[0, 1.0764987922959313e-05, 9.773520119752394, 4.0567639019027, 45.69068154937093, 0, 0]
[0, 1.0764985638022343e-05, 9.773525414636593, 4.056764763508971, 45.83353297331769, 0, 0]
[0, 1.0764990560834784e-05, 9.773530659161652, 4.056765632805334, 45.97638439718504, 0, 0]
[0, 1.0764994596635578e-05, 9.77353577802242, 4.0567664959029965, 46.11923582106102, 0, 0]
[0, 1.0764997090931585e-05, 9.773540703469438, 4.0567673400685145, 46.262087245024034, 0, 0]
[0, 1.076499942403975e-05, 9.77354537574875, 4.056768153879552, 46.40493866914683, 0, 0]
[0, 1.076500036274732e-05, 9.77354974345613, 4.056768927097306, 46.547790093494434, 0, 0]
[0, 1.076501089301152e-05, 9.773553763620862, 4.056769650975864, 46.690641518121396, 0, 0]
[0, 1.0765005185635644e-05, 9.773557401759822, 4.056770318145144, 46.833492943077445, 0, 0]
[0, 1.0764992035209316e-05, 9.773560631740464, 4.056770922685857, 46.9763443683999, 0, 0]
[0, 1.0765005079007049e-05, 9.773563435576863, 4.056771459992977, 47.11919579412034, 0, 0]
[0, 1.0765011312186184e-05, 9.773565803045985, 4.056771926929126, 47.262047220260754, 0, 0]
[0, 1.0765011065415199e-05, 9.77356773130831, 4.0567723215469735, 47.40489864683502, 0, 0]
[0, 1.0765025856534009e-05, 9.77356922435291, 4.056772643212641, 47.54775007385032, 0, 0]
[0, 1.0765007445003674e-05, 9.773570292451309, 4.056772892393145, 47.69060150130664, 0, 0]
[0, 1.0765002391698162e-05, 9.773570951512806, 4.056773070657545, 47.833452929195374, 0, 0]
[0, 1.0765015334819065e-05, 9.773571222435137, 4.056773180476136, 47.976304357505526, 0, 0]
[0, 1.0765007096817127e-05, 9.773571130403747, 4.056773225193102, 48.11915578621653, 0, 0]
[0, 1.0765021608475708e-05, 9.773570704200935, 4.056773208823524, 48.262007215306845, 0, 0]
[0, 1.0765014747170307e-05, 9.773569975480964, 4.0567731360640105, 48.40485864474923, 0, 0]
[0, 1.0765007761439518e-05, 9.773568978080538, 4.056773012108953, 48.54771007451257, 0, 0]
[0, 1.0765002864592923e-05, 9.773567747376829, 4.056772842429265, 48.69056150456483, 0, 0]
[0, 1.07650142800676e-05, 9.773566319593542, 4.056772632831689, 48.83341293487252, 0, 0]
[0, 1.0765007769202807e-05, 9.773564731192419, 4.05677238934665, 48.97626436539738, 0, 0]
[0, 1.076500617309917e-05, 9.773563018341525, 4.056772117953117, 49.11911579610496, 0, 0]
[0, 1.0765018168505614e-05, 9.773561216349703, 4.056771824684038, 49.26196722695795, 0, 0]
[0, 1.0765006840125992e-05, 9.773559359238853, 4.05677151533596, 49.40481865792096, 0, 0]
[0, 1.0764993200670384e-05, 9.773557479287367, 4.05677119559924, 49.547670088959556, 0, 0]
[0, 1.0765003364720997e-05, 9.773555606690946, 4.056770870859029, 49.69052152003928, 0, 0]
[0, 1.0765004126724315e-05, 9.773553769259816, 4.056770546199551, 49.83337295113145, 0, 0]
[0, 1.0765011561200186e-05, 9.773551992201938, 4.05677022621711, 49.97622438220257, 0, 0]
[0, 1.0765004229963213e-05, 9.77355029787411, 4.05676991525926, 50.11907581323159, 0, 0]
[0, 1.0765007771543767e-05, 9.773548705756971, 4.056769617002064, 50.261927244188854, 0, 0]
[0, 1.0765001064641369e-05, 9.773547232268063, 4.056769334851775, 50.40477867505621, 0, 0]
[0, 1.0764999735993421e-05, 9.77354589083864, 4.056769071541832, 50.54763010581736, 0, 0]
[0, 1.076500121667899e-05, 9.773544691862506, 4.056768829465924, 50.69048153645414, 0, 0]
[0, 1.0764996308832485e-05, 9.77354364281696, 4.056768610415679, 50.83333296695508, 0, 0]
[0, 1.0764998267061703e-05, 9.77354274835637, 4.056768415710066, 50.976184397310604, 0, 0]
[0, 1.0765005384675112e-05, 9.773542010418172, 4.056768246311651, 51.11903582751498, 0, 0]
[0, 1.0764996892204627e-05, 9.773541428474921, 4.05676810255168, 51.261887257566286, 0, 0]
[0, 1.0764995740462068e-05, 9.773540999646427, 4.0567679845068385, 51.404738687460686, 0, 0]
[0, 1.0764999236209976e-05, 9.773540718976296, 4.0567678917533785, 51.54759011720203, 0, 0]
[0, 1.0764999087175877e-05, 9.773540579631508, 4.056767823595649, 51.69044154679221, 0, 0]
[0, 1.0764995291286352e-05, 9.77354057317371, 4.056767778949875, 51.83329297623698, 0, 0]
[0, 1.0764994473203135e-05, 9.77354068977765, 4.056767756508357, 51.97614440554591, 0, 0]
[0, 1.0765003190080876e-05, 9.773540918500785, 4.056767754732289, 52.11899583472663, 0, 0]
[0, 1.0764996207063182e-05, 9.773541247528136, 4.05676777190405, 52.26184726378682, 0, 0]
[0, 1.0764996290813738e-05, 9.77354166443753, 4.05676780606517, 52.40469869274177, 0, 0]
[0, 1.0764993226208931e-05, 9.773542156383844, 4.056767855279377, 52.547550121599144, 0, 0]
[0, 1.076499791660802e-05, 9.773542710399422, 4.056767917354576, 52.69040155037615, 0, 0]
[0, 1.0764998822185267e-05, 9.77354331350431, 4.056767990285078, 52.833252979080456, 0, 0]
[0, 1.0765002129407229e-05, 9.773543952988131, 4.056768071897649, 52.976104407729274, 0, 0]
[0, 1.0765002734207713e-05, 9.773544616551558, 4.056768160062112, 53.11895583633409, 0, 0]
[0, 1.0764996199904733e-05, 9.773545292436255, 4.056768252787047, 53.261807264906366, 0, 0]
[0, 1.0764995356931834e-05, 9.773545969594672, 4.056768348116968, 53.4046586934576, 0, 0]
[0, 1.076500608362784e-05, 9.773546637789883, 4.056768444213291, 53.547510122001185, 0, 0]
[0, 1.076498930248176e-05, 9.77354728769673, 4.056768539355191, 53.69036155054668, 0, 0]
[0, 1.076499586113162e-05, 9.773547910969532, 4.05676863194366, 53.833212979103656, 0, 0]
[0, 1.0765007287928463e-05, 9.77354850027762, 4.056768720615554, 53.97606440768168, 0, 0]
[0, 1.0765005483743088e-05, 9.773549049368496, 4.056768804118691, 54.1189158362884, 0, 0]
[0, 1.0765001134236874e-05, 9.773549553071204, 4.056768881363792, 54.26176726492956, 0, 0]
[0, 1.0764991024511166e-05, 9.77355000729089, 4.056768951414614, 54.404618693613784, 0, 0]
[0, 1.0764998050504327e-05, 9.773550408981844, 4.056769013565944, 54.54747012234392, 0, 0]
[0, 1.0765002423572976e-05, 9.773550756106072, 4.056769067331148, 54.690321551122835, 0, 0]
[0, 1.0765008883620593e-05, 9.77355104763351, 4.056769112270707, 54.833172979955336, 0, 0]
[0, 1.0765002389640131e-05, 9.773551283440606, 4.056769148155903, 54.976024408841404, 0, 0]
[0, 1.0765003173334021e-05, 9.773551464245024, 4.056769174942781, 55.118875837782966, 0, 0]
[0, 1.0764995190622785e-05, 9.773551591546143, 4.056769192720961, 55.2617272667781, 0, 0]
[0, 1.076500488240697e-05, 9.773551667563598, 4.056769201592672, 55.40457869582872, 0, 0]
[0, 1.0764995526115009e-05, 9.773551695072317, 4.056769202009843, 55.547430124931, 0, 0]
[0, 1.0765000955714264e-05, 9.773551677416943, 4.0567691943168995, 55.69028155408303, 0, 0]
[0, 1.076500851582772e-05, 9.773551618345865, 4.056769179080683, 55.833132983282894, 0, 0]
[0, 1.076500959537939e-05, 9.773551521966267, 4.056769156855865, 55.975984412524845, 0, 0]
[0, 1.0764994934492517e-05, 9.773551392640439, 4.056769128261313, 56.11883584180698, 0, 0]
[0, 1.0764997282566379e-05, 9.773551234879893, 4.056769094055655, 56.26168727112547, 0, 0]
[0, 1.0764992741113838e-05, 9.773551053297044, 4.056769054962137, 56.40453870047457, 0, 0]
[0, 1.0765007214480459e-05, 9.773550852525064, 4.056769011699593, 56.54739012985142, 0, 0]
[0, 1.0764996068344038e-05, 9.773550637128926, 4.056768965024546, 56.69024155924931, 0, 0]
[0, 1.0765009678084334e-05, 9.773550411551344, 4.05676891569196, 56.833092988665385, 0, 0]
[0, 1.0765008439578207e-05, 9.773550180055935, 4.056768864424563, 56.97594441809675, 0, 0]
[0, 1.0764988436510821e-05, 9.773549946665296, 4.056768811950064, 57.118795847533875, 0, 0]
[0, 1.076501351402738e-05, 9.77354971513636, 4.05676875894166, 57.26164727697768, 0, 0]
[0, 1.076498820974169e-05, 9.77354948892609, 4.056768705970988, 57.4044987064215, 0, 0]
[0, 1.076499586655085e-05, 9.773549271115956, 4.056768653706553, 57.547350135864356, 0, 0]
[0, 1.0765003949700157e-05, 9.773549064467643, 4.056768602598645, 57.69020156529957, 0, 0]
[0, 1.0765009798653521e-05, 9.773548871334231, 4.056768553183808, 57.83305299472519, 0, 0]
[0, 1.076500188647992e-05, 9.77354869371493, 4.056768505798305, 57.97590442414127, 0, 0]
[0, 1.0764984841113057e-05, 9.773548533204538, 4.0567684608295895, 58.118755853542034, 0, 0]
[0, 1.0764996221743981e-05, 9.773548391027905, 4.056768418536484, 58.26160728292749, 0, 0]
[0, 1.0764999887420366e-05, 9.77354826802779, 4.056768379192591, 58.40445871229572, 0, 0]
[0, 1.076500837112476e-05, 9.773548164710386, 4.056768342923387, 58.54731014164673, 0, 0]
[0, 1.0765002474839868e-05, 9.773548081249617, 4.056768309798531, 58.690161570976706, 0, 0]
[0, 1.0764991662499862e-05, 9.77354801747499, 4.056768279955082, 58.833013000289455, 0, 0]
[0, 1.0765003289557355e-05, 9.773547972970334, 4.0567682533139475, 58.97586442958116, 0, 0]
[0, 1.0764991375011535e-05, 9.77354794704138, 4.056768229827832, 59.11871585885372, 0, 0]
[0, 1.076500250761605e-05, 9.773547938759272, 4.056768209435449, 59.26156728810716, 0, 0]
[0, 1.0764996075972037e-05, 9.773547947009531, 4.056768191981739, 59.404418717343376, 0, 0]
[0, 1.0764996625458098e-05, 9.77354797050837, 4.056768177310902, 59.54727014656237, 0, 0]
[0, 1.076499961456297e-05, 9.773548007846816, 4.056768165182432, 59.69012157576414, 0, 0]
[0, 1.0764993967907444e-05, 9.773548057494537, 4.056768155425255, 59.83297300495253, 0, 0]
[0, 1.076500697465437e-05, 9.773548117863841, 4.05676814778936, 59.97582443412752, 0, 0]
[0, 1.0765000224114343e-05, 9.773548187329885, 4.056768141979327, 60.118675863291024, 0, 0]
[0, 1.0764988548350277e-05, 9.773548264234659, 4.0567681377911065, 60.26152729244305, 0, 0]
[0, 1.0764996042770394e-05, 9.773548346955085, 4.056768134904742, 60.40437872158742, 0, 0]
[0, 1.076501396943932e-05, 9.773548433888422, 4.056768133065373, 60.54723015072414, 0, 0]
[0, 1.0765014537161854e-05, 9.773548523487651, 4.056768132033743, 60.69008157985512, 0, 0]
[0, 1.0765000159372757e-05, 9.773548614288414, 4.056768131541564, 60.83293300898419, 0, 0]
[0, 1.0764980058128945e-05, 9.773548704913923, 4.0567681313592825, 60.97578443810943, 0, 0]
[0, 1.0764993316299353e-05, 9.773548794113626, 4.05676813119, 61.118635867232754, 0, 0]
[0, 1.0764996270981366e-05, 9.7735488807095, 4.056768130926353, 61.261487296358005, 0, 0]
[0, 1.0764995462777624e-05, 9.77354896370273, 4.056768130274229, 61.40433872548516, 0, 0]
[0, 1.0765001717923607e-05, 9.773549042184785, 4.056768129117928, 61.54719015461422, 0, 0]
[0, 1.0765000425946556e-05, 9.773549115389486, 4.056768127342616, 61.69004158374712, 0, 0]
[0, 1.0764999825232206e-05, 9.77354918273863, 4.056768124642766, 61.832893012885755, 0, 0]
[0, 1.076499433853332e-05, 9.773549243690942, 4.056768121129992, 61.97574444202821, 0, 0]
[0, 1.0764997778400993e-05, 9.773549297925264, 4.056768116604742, 62.11859587117833, 0, 0]
[0, 1.0765004670485769e-05, 9.773549345232869, 4.056768110922423, 62.261447300332264, 0, 0]
[0, 1.0764997534542762e-05, 9.773549385501838, 4.056768104084628, 62.40429872949577, 0, 0]
[0, 1.0764998182059218e-05, 9.773549418688997, 4.05676809628192, 62.547150158665026, 0, 0]
[0, 1.076499532715512e-05, 9.773549444987848, 4.056768087189316, 62.690001587840015, 0, 0]
[0, 1.0765008705916048e-05, 9.77354946456585, 4.0567680770261605, 62.83285301702265, 0, 0]
[0, 1.0765000466428372e-05, 9.773549477731404, 4.0567680657634595, 62.975704446211985, 0, 0]
[0, 1.0764969290086038e-05, 9.77354948486795, 4.056768053405944, 63.11855587540707, 0, 0]
[0, 1.0764993765999193e-05, 9.773549486405837, 4.05676804002184, 63.2614073046098, 0, 0]
[0, 1.0764999584542926e-05, 9.773549482826287, 4.056768025708621, 63.40425873381827, 0, 0]
[0, 1.0765002776547902e-05, 9.77354947466596, 4.056768010490859, 63.547110163031526, 0, 0]
[0, 1.0765005800470153e-05, 9.773549462483924, 4.056767994456132, 63.68996159225052, 0, 0]
[0, 1.0765025585728676e-05, 9.773549446824578, 4.056767977827674, 63.83281302147334, 0, 0]
[0, 1.0764994028850243e-05, 9.773549428289865, 4.056767960600248, 63.97566445069999, 0, 0]
[0, 1.076497927488955e-05, 9.773549407487323, 4.056767942793816, 64.11851587993046, 0, 0]
[0, 1.0765002425112372e-05, 9.77354938496392, 4.056767924617926, 64.26136730916285, 0, 0]
[0, 1.0764987697158369e-05, 9.773549361304955, 4.05676790603394, 64.40421873839715, 0, 0]
[0, 1.0764995313585913e-05, 9.773549337002638, 4.056767887309318, 64.54707016763528, 0, 0]
[0, 1.0765031143990322e-05, 9.773549312582306, 4.056767868439781, 64.68992159687245, 0, 0]
[0, 1.0764990322451618e-05, 9.773549288505444, 4.056767849514182, 64.83277302611059, 0, 0]
[0, 1.0765006571720687e-05, 9.773549265209066, 4.056767830556933, 64.97562445534966, 0, 0]
[0, 1.076498318547691e-05, 9.773549243057902, 4.05676781173313, 65.11847588458683, 0, 0]
[0, 1.0764990843895834e-05, 9.773549222401238, 4.056767793036272, 65.26132731382401, 0, 0]
[0, 1.0764995222938458e-05, 9.773549203502036, 4.056767774620764, 65.40417874306021, 0, 0]
[0, 1.0764998286559592e-05, 9.773549186625132, 4.056767756435945, 65.54703017229453, 0, 0]
[0, 1.0765012062618238e-05, 9.773549171968169, 4.056767738500365, 65.68988160152692, 0, 0]
[0, 1.076499818368629e-05, 9.773549159622975, 4.056767721049912, 65.83273303075738, 0, 0]
[0, 1.0764982912057443e-05, 9.773549149752762, 4.056767703845462, 65.97558445998499, 0, 0]
[0, 1.0764996361490889e-05, 9.77354914233869, 4.056767687203409, 66.11843588921069, 0, 0]
[0, 1.0765007487957999e-05, 9.773549137477758, 4.056767670775767, 66.2612873184335, 0, 0]
[0, 1.07649778651925e-05, 9.773549135081504, 4.056767654829355, 66.40413874765537, 0, 0]
[0, 1.0764993346621556e-05, 9.77354913509246, 4.056767639318702, 66.54699017687341, 0, 0]
[0, 1.0765009671234536e-05, 9.773549137435456, 4.056767624164174, 66.68984160609048, 0, 0]
[0, 1.0765003263360539e-05, 9.773549141977988, 4.056767609411546, 66.83269303530375, 0, 0]
[0, 1.0764996479669742e-05, 9.773549148575677, 4.056767595010412, 66.9755444645151, 0, 0]
[0, 1.076501384423905e-05, 9.773549157047873, 4.0567675809927515, 67.11839589372451, 0, 0]
[0, 1.0764986357647073e-05, 9.773549167237881, 4.056767567252542, 67.26124732293204, 0, 0]
[0, 1.0764988945574817e-05, 9.773549178935065, 4.056767553805206, 67.40409875213763, 0, 0]
[0, 1.0764993113167117e-05, 9.773549191927934, 4.056767540661348, 67.54695018134132, 0, 0]
[0, 1.0765007591808327e-05, 9.773549206006464, 4.056767527808385, 67.689801610545, 0, 0]
[0, 1.076498010600521e-05, 9.773549221001543, 4.056767515050726, 67.83265303974487, 0, 0]
[0, 1.076499319951093e-05, 9.773549236674128, 4.056767502490642, 67.97550446894473, 0, 0]
[0, 1.0764999403278651e-05, 9.773549252845651, 4.056767490014349, 68.1183558981446, 0, 0]
[0, 1.0765011436033973e-05, 9.77354926928068, 4.056767477744048, 68.26120732734255, 0, 0]
[0, 1.0764990170272136e-05, 9.773549285867581, 4.056767465365607, 68.4040587565405, 0, 0]
[0, 1.0765002707593624e-05, 9.77354930237372, 4.056767453105625, 68.54691018573843, 0, 0]
[0, 1.076501333646681e-05, 9.77354931865539, 4.056767440877152, 68.68976161493637, 0, 0]
[0, 1.076496947892248e-05, 9.773549334586306, 4.056767428589968, 68.83261304413433, 0, 0]
[0, 1.076500962691627e-05, 9.773549350025851, 4.05676741628394, 68.97546447333228, 0, 0]
[0, 1.0765007856492681e-05, 9.773549364880749, 4.056767403870977, 69.11831590253215, 0, 0]
[0, 1.0764984190586967e-05, 9.773549379044635, 4.056767391397078, 69.26116733173009, 0, 0]
[0, 1.0764989979307334e-05, 9.773549392458218, 4.056767378780708, 69.40401876092996, 0, 0]
[0, 1.0765008678517733e-05, 9.773549405048989, 4.056767366076612, 69.54687019012981, 0, 0]
[0, 1.0764984745782883e-05, 9.773549416775811, 4.056767353264853, 69.68972161933159, 0, 0]
[0, 1.0765008168100156e-05, 9.773549427636224, 4.056767340251218, 69.83257304853336, 0, 0]
[0, 1.0764971130185329e-05, 9.773549437594397, 4.056767327145143, 69.97542447773515, 0, 0]
[0, 1.0764989573964078e-05, 9.773549446671131, 4.056767313867567, 70.11827590693977, 0, 0]
[0, 1.0765014625811327e-05, 9.773549454876832, 4.056767300450543, 70.26112733614252, 0, 0]
[0, 1.0765011670431898e-05, 9.773549462236941, 4.056767286915593, 70.40397876535003, 0, 0]
[0, 1.0765000895797782e-05, 9.773549468803942, 4.056767273209139, 70.54683019455372, 0, 0]
[0, 1.0764977221936979e-05, 9.773549474611187, 4.056767259419858, 70.68968162376123, 0, 0]
[0, 1.0765003185384717e-05, 9.773549479728606, 4.0567672454750365, 70.83253305296874, 0, 0]
[0, 1.0764983742185311e-05, 9.773549484234563, 4.056767231343859, 70.97538448218009, 0, 0]
[0, 1.076499535400428e-05, 9.773549488164553, 4.056767217137835, 71.1182359113876, 0, 0]
[0, 1.0765010555179495e-05, 9.773549491595865, 4.056767202873851, 71.26108734059893, 0, 0]
[0, 1.0764987680707287e-05, 9.773549494612173, 4.0567671884930006, 71.40393876980836, 0, 0]
[0, 1.0764992083088166e-05, 9.773549497277559, 4.056767174064963, 71.54679019901779, 0, 0]
[0, 1.0764994661618492e-05, 9.773549499658827, 4.056767159606638, 71.68964162822914, 0, 0]
[0, 1.0765008479572866e-05, 9.773549501857683, 4.05676714505502, 71.83249305744049, 0, 0]
[0, 1.0764986989228379e-05, 9.773549503928294, 4.056767130455102, 71.97534448665374, 0, 0]
[0, 1.0764992163469613e-05, 9.77354950592577, 4.056767115844103, 72.11819591586699, 0, 0]
[0, 1.0764996099874878e-05, 9.773549507923253, 4.0567671012306405, 72.26104734507832, 0, 0]
[0, 1.0764995849081108e-05, 9.773549509993332, 4.056767086547621, 72.40389877428967, 0, 0]
[0, 1.0764997597421999e-05, 9.773549512147415, 4.056767071957604, 72.54675020350102, 0, 0]
[0, 1.0764998829199164e-05, 9.773549514473029, 4.056767057319998, 72.68960163271618, 0, 0]
[0, 1.0764995340011618e-05, 9.77354951698721, 4.056767042740785, 72.83245306192752, 0, 0]
[0, 1.0764994370736248e-05, 9.773549519742634, 4.056767028152792, 72.97530449113886, 0, 0]
[0, 1.0764993422836915e-05, 9.773549522746686, 4.056767013648576, 73.1181559203502, 0, 0]
[0, 1.076499481054637e-05, 9.773549526025716, 4.056766999219505, 73.26100734956155, 0, 0]
[0, 1.07650120698598e-05, 9.773549529637393, 4.056766984689387, 73.40385877877289, 0, 0]
[0, 1.07649722364666e-05, 9.773549533545518, 4.05676697028254, 73.54671020798423, 0, 0]
[0, 1.0765001763167399e-05, 9.773549537759703, 4.056766955949297, 73.68956163719557, 0, 0]
[0, 1.0764985162327867e-05, 9.77354954230734, 4.056766941610166, 73.83241306640308, 0, 0]
[0, 1.0764992025577738e-05, 9.773549547151019, 4.056766927372186, 73.97526449561443, 0, 0]
[0, 1.0765014763886265e-05, 9.773549552287577, 4.056766913237068, 74.11811592482385, 0, 0]
[0, 1.0764989162615018e-05, 9.773549557732126, 4.056766899075105, 74.26096735403328, 0, 0]
[0, 1.0764993391402617e-05, 9.773549563451535, 4.056766884961032, 74.40381878324081, 0, 0]
[0, 1.0765008238692341e-05, 9.773549569425724, 4.056766870894635, 74.54667021245214, 0, 0]
[0, 1.0764995572444211e-05, 9.77354957561688, 4.056766856936914, 74.68952164165965, 0, 0]
[0, 1.0765006748640219e-05, 9.773549582023875, 4.056766842987101, 74.83237307086716, 0, 0]
[0, 1.0764985382686828e-05, 9.773549588626762, 4.056766829033704, 74.97522450007469, 0, 0]
[0, 1.0764989699730526e-05, 9.773549595403049, 4.056766815061926, 75.1180759292822, 0, 0]
[0, 1.0764992490372168e-05, 9.773549602280674, 4.05676680123733, 75.26092735848971, 0, 0]
[0, 1.0764994305916172e-05, 9.773549609262824, 4.056766787448641, 75.40377878769722, 0, 0]
[0, 1.076499493056942e-05, 9.773549616325724, 4.056766773678805, 75.54663021690473, 0, 0]
[0, 1.076500746074568e-05, 9.773549623467652, 4.056766759832762, 75.68948164611226, 0, 0]
[0, 1.0764971553374981e-05, 9.773549630639932, 4.056766746013617, 75.83233307531977, 0, 0]
[0, 1.0764989616566639e-05, 9.77354963782856, 4.056766732170228, 75.97518450452729, 0, 0]
[0, 1.0764994689268014e-05, 9.773549644976981, 4.056766718426246, 76.1180359337348, 0, 0]
[0, 1.0764997445244234e-05, 9.773549652094998, 4.056766704695249, 76.26088736294231, 0, 0]
[0, 1.0765013427885592e-05, 9.773549659189039, 4.056766690845664, 76.40373879214984, 0, 0]
[0, 1.0764997666480622e-05, 9.773549666216864, 4.056766677003433, 76.54659022135735, 0, 0]
[0, 1.07649978765118e-05, 9.773549673159177, 4.056766663186743, 76.68944165056486, 0, 0]
[0, 1.0764991335658425e-05, 9.773549680007976, 4.056766649359917, 76.83229307977047, 0, 0]
[0, 1.0764981933630053e-05, 9.773549686733395, 4.056766635632443, 76.97514450897606, 0, 0]
[0, 1.0765004035072396e-05, 9.773549693396248, 4.056766621719928, 77.11799593818357, 0, 0]
[0, 1.0764999010783792e-05, 9.773549699934629, 4.056766607855988, 77.2608473673911, 0, 0]
[0, 1.076499367878038e-05, 9.773549706361177, 4.056766593976523, 77.4036987965986, 0, 0]
[0, 1.0764990093297496e-05, 9.773549712659408, 4.05676658013447, 77.54655022580612, 0, 0]
[0, 1.0764994557202863e-05, 9.77354971888557, 4.056766566126569, 77.68940165501363, 0, 0]
[0, 1.0764995174609763e-05, 9.773549724977256, 4.056766552187685, 77.83225308422499, 0, 0]
[0, 1.0765007172862618e-05, 9.773549730957436, 4.056766538264653, 77.9751045134325, 0, 0]
[0, 1.0764980591027833e-05, 9.773549736843298, 4.056766524299323, 78.11795594264001, 0, 0]
[0, 1.0764987847202871e-05, 9.773549742630985, 4.0567665103396235, 78.26080737184752, 0, 0]
[0, 1.0764994799000678e-05, 9.773549748338638, 4.056766496341344, 78.40365880105503, 0, 0]
[0, 1.076499605966882e-05, 9.773549753986822, 4.056766482250008, 78.54651023026638, 0, 0]
[0, 1.0764995057277102e-05, 9.773549759561222, 4.056766468173223, 78.68936165947389, 0, 0]
[0, 1.0764997168979244e-05, 9.773549765040546, 4.056766454210414, 78.8322130886814, 0, 0]
[0, 1.0765004445444417e-05, 9.773549770488863, 4.056766440161924, 78.97506451788891, 0, 0]
[0, 1.0764997098142199e-05, 9.77354977590727, 4.05676642606096, 79.11791594710026, 0, 0]
[0, 1.0764978430094414e-05, 9.773549781284176, 4.056766411986819, 79.26076737630778, 0, 0]
[0, 1.0764987960384611e-05, 9.773549786631838, 4.056766397929855, 79.4036188055153, 0, 0]
[0, 1.0765008289222281e-05, 9.773549791978049, 4.056766383821583, 79.54647023472664, 0, 0]
[0, 1.0764972030686472e-05, 9.773549797324467, 4.05676636967215, 79.68932166393415, 0, 0]
[0, 1.0765001763284249e-05, 9.773549802660224, 4.056766355578294, 79.83217309314549, 0, 0]
[0, 1.0764994174192552e-05, 9.773549807981292, 4.05676634157003, 79.975024522353, 0, 0]
[0, 1.0764993571772932e-05, 9.773549813344404, 4.05676632746118, 80.11787595156052, 0, 0]
[0, 1.0764993837166174e-05, 9.773549818711391, 4.056766313413241, 80.26072738077185, 0, 0]
[0, 1.0764992836226393e-05, 9.773549824110733, 4.056766299357011, 80.40357880997936, 0, 0]
[0, 1.0764994428501611e-05, 9.773549829575694, 4.056766285162183, 80.54643023918689, 0, 0]
[0, 1.0764993709704695e-05, 9.773549835030147, 4.056766271139454, 80.68928166839824, 0, 0]
[0, 1.0764994684525686e-05, 9.773549840527199, 4.056766257095812, 80.83213309760575, 0, 0]
[0, 1.0764990142285754e-05, 9.773549846082057, 4.056766242989223, 80.97498452681326, 0, 0]
[0, 1.0764994622568232e-05, 9.773549851655819, 4.056766228965463, 81.1178359560246, 0, 0]
[0, 1.0764995764793113e-05, 9.773549857288588, 4.05676621486616, 81.26068738523212, 0, 0]
[0, 1.0764992692240315e-05, 9.773549862941069, 4.056766200867254, 81.40353881443963, 0, 0]
[0, 1.0764994762943297e-05, 9.77354986863715, 4.056766186852838, 81.54639024365096, 0, 0]
[0, 1.0764991203453099e-05, 9.773549874388664, 4.056766172765845, 81.68924167285849, 0, 0]
[0, 1.0764994349456222e-05, 9.77354988015507, 4.056766158787132, 81.832093102066, 0, 0]
[0, 1.0764991221098018e-05, 9.773549885975056, 4.0567661447230625, 81.97494453127352, 0, 0]
[0, 1.0765005162747914e-05, 9.773549891813683, 4.056766130727153, 82.11779596048486, 0, 0]
[0, 1.0764984471987045e-05, 9.773549897681418, 4.05676611672274, 82.26064738969238, 0, 0]
[0, 1.0764989506095714e-05, 9.77354990358303, 4.056766102699529, 82.40349881889989, 0, 0]
[0, 1.0765000735412554e-05, 9.773549909488581, 4.056766088757767, 82.5463502481074, 0, 0]
[0, 1.076499247709013e-05, 9.773549915434309, 4.056766074728967, 82.68920167731491, 0, 0]
[0, 1.0764992784844096e-05, 9.773549921392524, 4.05676606073397, 82.83205310652626, 0, 0]
[0, 1.0764991101448187e-05, 9.773549927361387, 4.056766046737884, 82.97490453573377, 0, 0]
[0, 1.0765001868244323e-05, 9.773549933345283, 4.056766032715807, 83.11775596494128, 0, 0]
[0, 1.0764995592357453e-05, 9.773549939323363, 4.056766018752042, 83.26060739414879, 0, 0]
[0, 1.0764979090934742e-05, 9.773549945313956, 4.056766004747916, 83.40345882335824, 0, 0]
[0, 1.0764988382211308e-05, 9.773549951278559, 4.056765990857218, 83.54631025256766, 0, 0]
[0, 1.076499105107605e-05, 9.773549957266347, 4.056765976863245, 83.68916168177518, 0, 0]
[0, 1.07649905678772e-05, 9.773549963263541, 4.056765962809845, 83.83201311098269, 0, 0]
[0, 1.076499746391451e-05, 9.773549969245925, 4.056765948796916, 83.9748645401902, 0, 0]
[0, 1.0764995785141118e-05, 9.773549975199082, 4.056765934850567, 84.11771596940154, 0, 0]
[0, 1.0764994746622016e-05, 9.773549981162464, 4.056765920834306, 84.26056739860906, 0, 0]
[0, 1.0764985275193051e-05, 9.773549987078464, 4.056765906951866, 84.40341882781657, 0, 0]
[0, 1.0764992412091066e-05, 9.773549993025304, 4.056765892899415, 84.54627025702408, 0, 0]
[0, 1.0764999165696077e-05, 9.77354999892019, 4.056765879003396, 84.6891216862316, 0, 0]
[0, 1.0764997647228974e-05, 9.773550004827461, 4.056765864998595, 84.83197311543911, 0, 0]
[0, 1.0764990936736701e-05, 9.773550010735136, 4.056765850934955, 84.97482454465046, 0, 0]
[0, 1.0764991757707302e-05, 9.773550016620918, 4.056765836900704, 85.11767597385797, 0, 0]
[0, 1.0764990073826935e-05, 9.773550022472497, 4.056765822942616, 85.2605274030655, 0, 0]
[0, 1.0764989541813552e-05, 9.77355002831418, 4.056765808957157, 85.403378832273, 0, 0]
[0, 1.0764989789504752e-05, 9.773550034145464, 4.056765794965987, 85.54623026148434, 0, 0]
[0, 1.0764993741323234e-05, 9.773550039981783, 4.056765780905281, 85.68908169069185, 0, 0]
[0, 1.0764991395213547e-05, 9.773550045800345, 4.056765766862581, 85.83193311989938, 0, 0]
[0, 1.0764993990051747e-05, 9.773550051604499, 4.056765752832235, 85.97478454910689, 0, 0]
[0, 1.076498971959579e-05, 9.773550057364854, 4.056765738930187, 86.11763597831822, 0, 0]
[0, 1.0764992278525315e-05, 9.773550063145903, 4.056765724920058, 86.26048740752574, 0, 0]
[0, 1.0764994363830009e-05, 9.773550068920372, 4.056765710902874, 86.40333883673327, 0, 0]
[0, 1.0764987719590907e-05, 9.77355007470474, 4.056765696823721, 86.54619026594078, 0, 0]
[0, 1.0764992749813436e-05, 9.77355008046142, 4.056765682831503, 86.68904169515211, 0, 0]
[0, 1.076499326343316e-05, 9.773550086216774, 4.0567656688213205, 86.83189312435962, 0, 0]
[0, 1.0765005501016339e-05, 9.773550091964006, 4.056765654849632, 86.97474455356715, 0, 0]
[0, 1.0764982923364924e-05, 9.773550097730354, 4.05676564078489, 87.11759598277466, 0, 0]
[0, 1.0764987699970701e-05, 9.773550103483169, 4.056765626768939, 87.260447411986, 0, 0]
[0, 1.0765001137461803e-05, 9.773550109237362, 4.0567656127507785, 87.4032988411935, 0, 0]
[0, 1.0764990619028338e-05, 9.773550114993043, 4.056765598729721, 87.54615027040103, 0, 0]
[0, 1.076499140899911e-05, 9.773550120751597, 4.056765584716819, 87.68900169960854, 0, 0]
[0, 1.0764988826074037e-05, 9.773550126513122, 4.0567655706904215, 87.83185312881989, 0, 0]
[0, 1.076499088088731e-05, 9.773550132277485, 4.056765556666188, 87.9747045580274, 0, 0]
[0, 1.0764992951399105e-05, 9.773550138046494, 4.056765542661561, 88.11755598723492, 0, 0]
[0, 1.076498788547153e-05, 9.773550143835179, 4.056765528563347, 88.26040741644243, 0, 0]
[0, 1.0764991803446388e-05, 9.773550149604755, 4.0567655145769255, 88.40325884565377, 0, 0]
[0, 1.0764990098771342e-05, 9.773550155382582, 4.056765500578211, 88.54611027486128, 0, 0]
[0, 1.0764992983815383e-05, 9.773550161150991, 4.056765486627468, 88.6889617040688, 0, 0]
[0, 1.0765001893594013e-05, 9.773550166948384, 4.056765472593592, 88.83181313327631, 0, 0]
[0, 1.076498302939801e-05, 9.773550172748664, 4.0567654585690835, 88.97466456248574, 0, 0]
[0, 1.0765000645376814e-05, 9.77355017857672, 4.056765444457516, 89.11751599169517, 0, 0]
[0, 1.0764988924657201e-05, 9.773550184381495, 4.056765430444954, 89.2603674209027, 0, 0]
[0, 1.0764985912136162e-05, 9.773550190182512, 4.0567654164630165, 89.4032188501102, 0, 0]
[0, 1.0764986058885908e-05, 9.773550195991357, 4.056765402475219, 89.54607027932154, 0, 0]
[0, 1.0764990447045657e-05, 9.77355020179109, 4.056765388539331, 89.68892170852905, 0, 0]
[0, 1.0764988805970113e-05, 9.773550207622892, 4.05676537450401, 89.83177313773658, 0, 0]
[0, 7.001850890964175e-06, 10.166801754977548, 2.638633435819524, 89.97462456694409, 0, 0]
[0, 3.80516877638405e-06, 10.443914719650616, 1.4339696928588292, 89.98262682727821, 0, 0]
[0, 1.6156869725256555e-06, 10.593245079115988, 0.6088693752826273, 89.98888128568034, 0, 0]
[0, 3.8501280529952397e-07, 10.626385283160735, 0.14508646722471782, 89.99320113559949, 0, 0]
[0, -1.3403117378937132e-07, 10.575227443849554, -0.05050464758561356, 89.99566567503949, 0, 0]
[0, -2.22582586621971e-07, 10.47408911357836, -0.08387735963484225, 89.99674320419508, 0, 0]
[0, -1.1150529165363165e-07, 10.350704999630166, -0.042020131869806215, 89.99697504945063, 0, 0]
[0, 4.6101762176468735e-08, 10.22357451295119, 0.017372088025768548, 89.99680883111405, 0, 0]
[0, 1.6928822859338965e-07, 10.102871671265884, 0.06379632285002451, 89.99654321045301, 0, 0]
[0, 2.2975172261100116e-07, 9.992787940388379, 0.0865807130441289, 89.99633728763888, 0, 0]
[0, 2.3036715646416084e-07, 9.893987776031246, 0.08681301189451078, 89.99624775094996, 0, 0]
[0, 1.879586696293689e-07, 9.80554004799822, 0.07083230782569402, 89.9962701740244, 0, 0]
[0, 1.2198396026258554e-07, 9.726153788399435, 0.04597041595278223, 89.9963725541138, 0, 0]
[0, 4.865036031903837e-08, 9.65480221296669, 0.018333316804023125, 89.99651739479565, 0, 0]
[0, -2.1090845400735026e-08, 9.590917583106249, -0.007952496483031486, 89.99667330580377, 0, 0]
[0, -8.131031423724861e-08, 9.534342360579178, -0.030638118082838894, 89.99681902608296, 0, 0]
[0, -1.2970611827974413e-07, 9.485179978545437, -0.04887706467314554, 89.99694298977239, 0, 0]
[0, -1.6634611117129373e-07, 9.443635455648158, -0.0626873277360541, 89.99704092236894, 0, 0]
[0, -1.9240550491049732e-07, 9.409890339333021, -0.07250892872772578, 89.99711307909813, 0, 0]
[0, -2.0938792638811356e-07, 9.384024840577345, -0.07890783339915164, 89.9971619551437, 0, 0]
[0, -2.186964493522807e-07, 9.365982332507985, -0.08241552355537526, 89.99719074133354, 0, 0]
[0, -2.2148926300237795e-07, 9.355564279127357, -0.08346758878980645, 89.99720247788814, 0, 0]
[0, -2.1865698971474452e-07, 9.352443113535513, -0.08240130476112417, 89.99719972144416, 0, 0]
[0, -2.1090886504252337e-07, 9.35618319762467, -0.07947997046629793, 89.99718452048718, 0, 0]
[0, -1.988147497551289e-07, 9.366263459844516, -0.07492292913061255, 89.99715853287326, 0, 0]
[0, -1.829156354232162e-07, 9.382098359322157, -0.06893028854445397, 89.99712317587777, 0, 0]
[0, -1.6372413573427894e-07, 9.40305597251629, -0.06169858434977296, 89.99707975111028, 0, 0]
[0, -1.417714387282629e-07, 9.42847323294969, -0.053427852354491864, 89.9970295239874, 0, 0]
[0, -1.1761540752405454e-07, 9.457668881148713, -0.04432241649414216, 89.99697375952397, 0, 0]
[0, -9.178377146889188e-08, 9.489954762306235, -0.034588005972600325, 89.99691372594546, 0, 0]
[0, -6.483024595951512e-08, 9.524645971706557, -0.024427348623274756, 89.9968506794423, 0, 0]
[0, -3.7235261640556976e-08, 9.561070144400885, -0.014035664601120865, 89.99678584102232, 0, 0]
[0, -9.54103621546053e-09, 9.598576006482336, -0.0035968192856023137, 89.9967203728616, 0, 0]
[0, 1.7828047462499555e-08, 9.636541181827505, 0.006719595842625829, 89.99665535813027, 0, 0]
[0, 4.4475441840469174e-08, 9.674379186578859, 0.01676027166234975, 89.99659178568561, 0, 0]
[0, 7.002623240825873e-08, 9.71154552605588, 0.02638943259095857, 89.99653053963667, 0, 0]
[0, 9.417633029495875e-08, 9.74754282352408, 0.035489504737210964, 89.9964723930034, 0, 0]
[0, 1.1665490883596047e-07, 9.781924935420411, 0.04396135685683867, 89.99641800460563, 0, 0]
[0, 1.3725367349871825e-07, 9.814300039190123, 0.05172421977791965, 89.99636791837798, 0, 0]
[0, 1.5580807668534794e-07, 9.844332707151628, 0.058715350736709, 89.99632256460215, 0, 0]
[0, 1.7218922228283107e-07, 9.871745001296174, 0.0648894808991834, 89.9962822626812, 0, 0]
[0, 1.8632907265310197e-07, 9.896316641111856, 0.07021806626395874, 89.99624722524187, 0, 0]
[0, 1.9819208845466167e-07, 9.917884308227842, 0.07468835622532023, 89.99621756349183, 0, 0]
[0, 2.0778277178009963e-07, 9.936340159442604, 0.07830229652914159, 89.99619329363716, 0, 0]
[0, 2.1513995055879312e-07, 9.951629625550153, 0.08107528698968079, 89.99617434434818, 0, 0]
[0, 2.203420227685565e-07, 9.96374857776427, 0.08303481722176712, 89.99616056502899, 0, 0]
[0, 2.2348246489443543e-07, 9.972739945167385, 0.08421901152925901, 89.99615173482547, 0, 0]
[0, 2.246920211900331e-07, 9.97868986930867, 0.08467511222656096, 89.99614757206197, 0, 0]
[0, 2.2411477876930982e-07, 9.981723482058799, 0.08445793411262582, 89.99614774402235, 0, 0]
[0, 2.2191582583781338e-07, 9.982000392787732, 0.08362831989744401, 89.9961518767692, 0, 0]
[0, 2.1826323607707037e-07, 9.979709969537002, 0.08225162638624343, 89.99615956490973, 0, 0]
[0, 2.1333946382128626e-07, 9.975066496873728, 0.0803962654194465, 89.9961703809978, 0, 0]
[0, 2.073320573049711e-07, 9.968304289388952, 0.07813232285926958, 89.9961838845689, 0, 0]
[0, 2.004265163919114e-07, 9.959672835974011, 0.07553027360649175, 89.99619963054349, 0, 0]
[0, 1.9280808569360178e-07, 9.949432045043157, 0.07265980639406139, 89.9962171769761, 0, 0]
[0, 1.8465929706262176e-07, 9.937847654592378, 0.06958877040466337, 89.99623609200465, 0, 0]
[0, 1.7615061649628466e-07, 9.9251868654248, 0.06638224880370075, 89.99625596002284, 0, 0]
[0, 1.674462642688052e-07, 9.911714247694391, 0.06310176573782711, 89.99627638695334, 0, 0]
[0, 1.5869796868354346e-07, 9.897687964972816, 0.05980462494294584, 89.99629700469072, 0, 0]
[0, 1.500423691624716e-07, 9.88335635143848, 0.056543379631957304, 89.99631747465247, 0, 0]
[0, 1.4160956798183236e-07, 9.868954870563478, 0.053365429262120005, 89.99633749053046, 0, 0]
[0, 1.3350956285653947e-07, 9.854703475896779, 0.050312737308732765, 89.99635678022345, 0, 0]
[0, 1.25837548358801e-07, 9.84080438718502, 0.047421661474475484, 89.99637510703862, 0, 0]
[0, 1.1866493167767582e-07, 9.827440287390516, 0.04472288996537189, 89.99639227018906, 0, 0]
[0, 1.1209654595438548e-07, 9.814772939886568, 0.04224147164184548, 89.99640810469435, 0, 0]
[0, 1.0613700300106667e-07, 9.802942217941142, 0.0399969323217571, 89.99642248068008, 0, 0]
[0, 1.0084684695275097e-07, 9.792065533495164, 0.03800346528825228, 89.99643530224542, 0, 0]
[0, 9.624870612886108e-08, 9.782237646134536, 0.03627018699505397, 89.99644650585181, 0, 0]
[0, 9.234894933368715e-08, 9.773530829285313, 0.03480144638148799, 89.99645605839834, 0, 0]
[0, 8.9156685199039e-08, 9.765995365882127, 0.033597179706748706, 89.9964639550021, 0, 0]
[0, 8.664893294148599e-08, 9.759660343603548, 0.032653298568142516, 89.99647021653776, 0, 0]
[0, 8.481474622407027e-08, 9.754534715783894, 0.03196210553355055, 89.99647488703914, 0, 0]
[0, 8.361534611195766e-08, 9.750608593862912, 0.03151272544824039, 89.99647803097082, 0, 0]
[0, 8.303301645445143e-08, 9.747854734714156, 0.03129154725911884, 89.99647973043844, 0, 0]
[0, 8.30127208204053e-08, 9.746230186773532, 0.03128266671759751, 89.99648008241822, 0, 0]
[0, 8.350659695630332e-08, 9.745678058245097, 0.0314683250006707, 89.99647919594044, 0, 0]
[0, 8.446277692522342e-08, 9.746129371728054, 0.03182933657554715, 89.99647718944145, 0, 0]
[0, 8.583359702934213e-08, 9.747504970726713, 0.0323455012863406, 89.99647418813849, 0, 0]
[0, 8.756165410791662e-08, 9.749717445377337, 0.03299599505015159, 89.99647032154238, 0, 0]
[0, 8.95866529171598e-08, 9.752673046248388, 0.03375973671907902, 89.99646572116143, 0, 0]
[0, 9.185410723094295e-08, 9.756273557790193, 0.034615727560411105, 89.99646051834326, 0, 0]
[0, 9.43161124690532e-08, 9.76041810616489, 0.03554335899762042, 89.99645484231549, 0, 0]
[0, 9.691864317698864e-08, 9.765004877959846, 0.03652268877171531, 89.99644881841783, 0, 0]
[0, 9.960194100423665e-08, 9.76993272995608, 0.03753468391369471, 89.99644256657137, 0, 0]
[0, 1.02313339778118e-07, 9.775102673535093, 0.03856142828691517, 89.99643619992393, 0, 0]
[0, 1.0505432096335018e-07, 9.780419219652657, 0.039586296150883514, 89.99642982375569, 0, 0]
[0, 1.077141850579e-07, 9.785791573955134, 0.04059409137680679, 89.99642353455297, 0, 0]
[0, 1.1032399336000604e-07, 9.791134674475888, 0.041571153609086614, 89.99641741932733, 0, 0]
[0, 1.1279587115585403e-07, 9.796370067593855, 0.04250543161858419, 89.99641155510251, 0, 0]
[0, 1.1512745855468981e-07, 9.80142662018281, 0.043386526777249634, 89.99640600865442, 0, 0]
[0, 1.1730238639619834e-07, 9.806241069122745, 0.04420570750706408, 89.99640083635035, 0, 0]
[0, 1.192933016395472e-07, 9.81075841108678, 0.044955898600656574, 89.99639608419487, 0, 0]
[0, 1.2108606191890468e-07, 9.814932138835514, 0.045631644982910266, 89.9963917880518, 0, 0]
[0, 1.2267397922678816e-07, 9.818724330645288, 0.04622905596805125, 89.99638797395798, 0, 0]
[0, 1.2404333831208622e-07, 9.82210560272297, 0.04674573008329994, 89.99638465859019, 0, 0]
[0, 1.251977013880163e-07, 9.82505493498413, 0.04718066421040599, 89.9963818498008, 0, 0]
[0, 1.2613521973556488e-07, 9.827559381957595, 0.04753414999390963, 89.99637954723778, 0, 0]
[0, 1.268609741366141e-07, 9.829613681614235, 0.0478076599738342, 89.99637774308698, 0, 0]
[0, 1.2738319362923302e-07, 9.831219775613711, 0.04800372551895926, 89.99637642282227, 0, 0]
[0, 1.2770348321198786e-07, 9.83238625435706, 0.04812581047199358, 89.99637556593252, 0, 0]
[0, 1.2784311350538586e-07, 9.833127741416975, 0.048178180609865395, 89.9963751468248, 0, 0]
[0, 1.2781391254347045e-07, 9.833464230254767, 0.04816577448341146, 89.99637513556665, 0, 0]
[0, 1.2762145790830328e-07, 9.833420388010454, 0.048094073072363415, 89.99637549870508, 0, 0]
[0, 1.272886459644298e-07, 9.833024838293696, 0.047968974651604976, 89.99637620009308, 0, 0]
[0, 1.2683273494338802e-07, 9.832309436266572, 0.047796673259736876, 89.99637720160142, 0, 0]
[0, 1.26269165969704e-07, 9.83130854730754, 0.04758354356982279, 89.99637846388399, 0, 0]
[0, 1.256116050845553e-07, 9.830058340297034, 0.047336032573193035, 89.99637994702833, 0, 0]
[0, 1.2488011876482202e-07, 9.828596104877784, 0.047060560304480574, 89.99638161120612, 0, 0]
[0, 1.240911577044434e-07, 9.82695960203169, 0.04676342811749752, 89.99638341722437, 0, 0]
[0, 1.2326158282671543e-07, 9.825186454863008, 0.046450737371673434, 89.99638532706092, 0, 0]
[0, 1.224055792024271e-07, 9.823313586266908, 0.04612831784243622, 89.99638730432392, 0, 0]
[0, 1.2153878676169126e-07, 9.821376708778644, 0.04580166542433176, 89.996389314619, 0, 0]
[0, 1.2067280405312063e-07, 9.819409870339495, 0.04547589030776234, 89.99639132590136, 0, 0]
[0, 1.1982219001780326e-07, 9.817445058936109, 0.045155675080535834, 89.99639330872839, 0, 0]
[0, 1.1900289260211745e-07, 9.815511867876369, 0.04484524214950351, 89.99639523648156, 0, 0]
[0, 1.182139222113554e-07, 9.813637222408394, 0.04454833029889518, 89.99639708551953, 0, 0]
[0, 1.1747007732991827e-07, 9.811845166963423, 0.04426818105655957, 89.99639883526233, 0, 0]
[0, 1.1677819391481816e-07, 9.810156712500385, 0.04400753197994605, 89.99640046822958, 0, 0]
[0, 1.1614241906635462e-07, 9.80858974129945, 0.043768618024831285, 89.9964019700635, 0, 0]
[0, 1.1557155144568083e-07, 9.807158966311878, 0.043553181146896124, 89.99640332945239, 0, 0]
[0, 1.1506565183291733e-07, 9.805875942382004, 0.04336248417128903, 89.99640453804636, 0, 0]
[0, 1.146280357895286e-07, 9.804749124451858, 0.04319733185051278, 89.99640559037327, 0, 0]
[0, 1.142584294486907e-07, 9.803783968999525, 0.04305809593284355, 89.9964064836243, 0, 0]
[0, 1.1395683089635708e-07, 9.802983073562368, 0.042944744800646834, 89.9964072175316, 0, 0]
[0, 1.1372623689539991e-07, 9.80234634964187, 0.04285687605697727, 89.99640779412329, 0, 0]
[0, 1.1355685152773884e-07, 9.8018712236552, 0.04279375220054538, 89.99640821754753, 0, 0]
[0, 1.134509203317174e-07, 9.801552861048965, 0.042754337355516474, 89.99640849381223, 0, 0]
[0, 1.1340922064479028e-07, 9.801384407971359, 0.042737336334363135, 89.99640863056314, 0, 0]
[0, 1.134176850116098e-07, 9.801357245929022, 0.04274123363911509, 89.99640863686953, 0, 0]
[0, 1.134813861093391e-07, 9.801461254389352, 0.042764332463453576, 89.99640852291044, 0, 0]
[0, 1.1358365248099696e-07, 9.801685076729832, 0.04280479315937412, 89.99640829982155, 0, 0]
[0, 1.1372166555942759e-07, 9.802016385023869, 0.042860671290701285, 89.99640797941204, 0, 0]
[0, 1.139324336518834e-07, 9.802442140224143, 0.042929952929276115, 89.99640757395798, 0, 0]
[0, 1.1413720549708894e-07, 9.802948843361227, 0.043010589703494806, 89.99640709598033, 0, 0]
[0, 1.14370375604503e-07, 9.803522775368148, 0.0431005299912993, 89.99640655806125, 0, 0]
[0, 1.1462941937548215e-07, 9.80415022207695, 0.04319774884628895, 89.9964059726605, 0, 0]
[0, 1.1490130091866627e-07, 9.804817682448673, 0.043300274646591384, 89.99640535193166, 0, 0]
[0, 1.1518254698846977e-07, 9.805512057885062, 0.043406213159539936, 89.99640470758443, 0, 0]
[0, 1.1546780726227457e-07, 9.806220821312115, 0.04351376845989464, 89.99640405075452, 0, 0]
[0, 1.1575284393138686e-07, 9.806932164867037, 0.04362126082689486, 89.9964033918888, 0, 0]
[0, 1.1603383060754391e-07, 9.807635125595935, 0.04372714150441352, 89.99640274064586, 0, 0]
[0, 1.1630675852437815e-07, 9.808319688698447, 0.043830005017508694, 89.99640210582713, 0, 0]
[0, 1.1656869861508026e-07, 9.80897686878333, 0.04392859780031173, 89.99640149531558, 0, 0]
[0, 1.168126813896718e-07, 9.8095987692453, 0.04402182433589167, 89.99640091602988, 0, 0]
[0, 1.170471997556439e-07, 9.810178620599768, 0.044108750575395046, 89.99640037391674, 0, 0]
[0, 1.1725736898746963e-07, 9.810710798807175, 0.04418860474723446, 89.99639987392025, 0, 0]
[0, 1.1744971246143784e-07, 9.811190824705264, 0.044260775930170713, 89.99639941999723, 0, 0]
[0, 1.1761983021456175e-07, 9.81161534613002, 0.04432481035896982, 89.99639901516309, 0, 0]
[0, 1.1776866691748129e-07, 9.81198210415168, 0.04438040585646391, 89.99639866146896, 0, 0]
[0, 1.1789234960441365e-07, 9.812289885224295, 0.044427404555121605, 89.99639836009345, 0, 0]
[0, 1.1799442942306306e-07, 9.812538461093633, 0.044465783901674674, 89.99639811137334, 0, 0]
[0, 1.1807320587700692e-07, 9.81272851809668, 0.0444956468998132, 89.99639791487235, 0, 0]
[0, 1.1813014696932747e-07, 9.812861578019145, 0.04451721069368882, 89.99639776942716, 0, 0]
[0, 1.1816663838046461e-07, 9.812939911905465, 0.04453079565181237, 89.99639767323926, 0, 0]
[0, 1.1818264362404869e-07, 9.812966449457436, 0.044536811770194376, 89.99639762393608, 0, 0]
[0, 1.1817931844679822e-07, 9.812944684703968, 0.0445357470689158, 89.99639761866288, 0, 0]
[0, 1.1815901995621594e-07, 9.812878580633592, 0.04452815395035239, 89.99639765415934, 0, 0]
[0, 1.1812364138171957e-07, 9.81277247361352, 0.04451463679396358, 89.99639772679774, 0, 0]
[0, 1.1807398545616798e-07, 9.812630979360593, 0.04449583978396588, 89.99639783272076, 0, 0]
[0, 1.1801141762471277e-07, 9.812458902021282, 0.0444724338116015, 89.99639796788743, 0, 0]
[0, 1.179384781829253e-07, 9.812261146842651, 0.044445105890030055, 89.99639812811897, 0, 0]
[0, 1.1785884925089127e-07, 9.812042638350361, 0.04441454719497682, 89.99639830921367, 0, 0]
[0, 1.1776979561525572e-07, 9.811808243925682, 0.04438144390442499, 89.99639850698512, 0, 0]
[0, 1.1767708677084319e-07, 9.811562704521764, 0.04434646689277582, 89.99639871730815, 0, 0]
[0, 1.1758005171359955e-07, 9.811310572243087, 0.044310263482660754, 89.99639893621065, 0, 0]
[0, 1.1748270795482388e-07, 9.811056155508831, 0.04427345025939104, 89.99639915988121, 0, 0]
[0, 1.1738550989949867e-07, 9.810803472157545, 0.044236606491886495, 89.99639938473037, 0, 0]
[0, 1.1728916276808806e-07, 9.810556210563862, 0.04420026826520722, 89.99639960741365, 0, 0]
[0, 1.1719536926800999e-07, 9.810317698502297, 0.04416492454037173, 89.99639982487729, 0, 0]
[0, 1.1710570796512951e-07, 9.810090880127143, 0.044131013133159196, 89.99640003437375, 0, 0]
[0, 1.1701885845674741e-07, 9.809878300230737, 0.04409891859214647, 89.9964002334616, 0, 0]
[0, 1.1694041052839741e-07, 9.80968209591167, 0.0440689707305509, 89.99640042003612, 0, 0]
[0, 1.1686864121749299e-07, 9.809503995086267, 0.04404144360820888, 89.99640059234471, 0, 0]
[0, 1.1680259216676107e-07, 9.809345321250406, 0.044016555914122124, 89.99640074894855, 0, 0]
[0, 1.1674249895175075e-07, 9.809207004041951, 0.04399447189376073, 89.99640088876082, 0, 0]
[0, 1.1669426186006138e-07, 9.809089594924783, 0.04397530319134552, 89.99640101100856, 0, 0]
[0, 1.1664908918099483e-07, 9.808993287542691, 0.04395911086173541, 89.99640111522487, 0, 0]
[0, 1.1661429138781972e-07, 9.808917941850488, 0.04394590837030241, 89.99640120124141, 0, 0]
[0, 1.1658591940383764e-07, 9.80886311142699, 0.04393566518211254, 89.99640126917296, 0, 0]
[0, 1.1656737887241152e-07, 9.808828073658416, 0.04392830966631924, 89.99640131937926, 0, 0]
[0, 1.1655768976158118e-07, 9.808811861333703, 0.04392373408012966, 89.99640135245724, 0, 0]
[0, 1.16551704678683e-07, 9.808813295992756, 0.04392179823689398, 89.99640136918758, 0, 0]
[0, 1.1655256441623158e-07, 9.808831021677614, 0.04392233411628852, 89.99640137054988, 0, 0]
[0, 1.1655978508114913e-07, 9.80886353898027, 0.043925150110232514, 89.99640135766155, 0, 0]
[0, 1.1657240505896451e-07, 9.808909238523858, 0.043930035839700746, 89.99640133177012, 0, 0]
[0, 1.1659023472956655e-07, 9.808966433637844, 0.04393676649217682, 89.99640129422255, 0, 0]
[0, 1.166090855121858e-07, 9.809033391821545, 0.04394510683384947, 89.99640124642707, 0, 0]
[0, 1.1663696801160568e-07, 9.809108364279606, 0.04395481584687183, 89.99640118983784, 0, 0]
[0, 1.1666881441232294e-07, 9.809189613697223, 0.04396565034618097, 89.99640112593197, 0, 0]
[0, 1.166992038217496e-07, 9.809275439611149, 0.04397736861485454, 89.99640105618656, 0, 0]
[0, 1.167283889716141e-07, 9.809364201289092, 0.04398973399892845, 89.99640098204044, 0, 0]
[0, 1.1676623608266627e-07, 9.80945433799381, 0.04400251790196734, 89.99640090490949, 0, 0]
[0, 1.1679990734401229e-07, 9.809544386530467, 0.04401550239904277, 89.99640082613307, 0, 0]
[0, 1.1683386496396114e-07, 9.809632995896521, 0.044028482836050695, 89.99640074698928, 0, 0]
[0, 1.1686746136982487e-07, 9.809718939247073, 0.044041269495362474, 89.9964006686491, 0, 0]
[0, 1.1690069452784433e-07, 9.80980112292127, 0.04405368967189148, 89.99640059221463, 0, 0]
[0, 1.169292393827172e-07, 9.809878592894208, 0.044065588616704086, 89.99640051865016, 0, 0]
[0, 1.1694860086478627e-07, 9.809950538572993, 0.04407683064568642, 89.99640044882055, 0, 0]
[0, 1.170140762019105e-07, 9.810016294187514, 0.04408729949612761, 89.99640038347584, 0, 0]
[0, 1.1702324624161467e-07, 9.810075337720203, 0.044096899025161986, 89.99640032322829, 0, 0]
[0, 1.1703711043079896e-07, 9.810127288065972, 0.04410555249603248, 89.99640026859834, 0, 0]
[0, 1.1704456389188252e-07, 9.810171899859602, 0.0441132030171744, 89.99640021996099, 0, 0]
[0, 1.1706958122876468e-07, 9.810209057020836, 0.04411981246278312, 89.9964001775918, 0, 0]
[0, 1.170862956405663e-07, 9.810238764690443, 0.044125360519889426, 89.99640014164378, 0, 0]
[0, 1.1710490113953746e-07, 9.810261139791969, 0.04412984435752182, 89.9964001121782, 0, 0]
[0, 1.1711382440110939e-07, 9.810276401024309, 0.04413327639914951, 89.99640008914146, 0, 0]
[0, 1.1711723429292802e-07, 9.810284857568277, 0.04413568410568983, 89.99640007240349, 0, 0]
[0, 1.171107356603036e-07, 9.810286897762188, 0.04413710755245794, 89.9964000617423, 0, 0]
[0, 1.1713426030001023e-07, 9.810282977133323, 0.044137598388983346, 89.99640005686709, 0, 0]
[0, 1.1712794713585935e-07, 9.810273606374533, 0.04413721842595747, 89.99640005741813, 0, 0]
[0, 1.1712158054517201e-07, 9.810259339633323, 0.04413603729252042, 89.99640006299745, 0, 0]
[0, 1.1711089213120202e-07, 9.810240762649117, 0.044134131618109806, 89.99640007314586, 0, 0]
[0, 1.1710517980746272e-07, 9.810218481706263, 0.044131582770504364, 89.99640008737353, 0, 0]
[0, 1.1709687021722675e-07, 9.81019311276462, 0.04412847592151946, 89.99640010518299, 0, 0]
[0, 1.1708888669664596e-07, 9.810165271581809, 0.04412489800813333, 89.9964001260385, 0, 0]
[0, 1.1707725003905567e-07, 9.81013556444035, 0.04412093642028705, 89.99640014941197, 0, 0]
[0, 1.1706878462014008e-07, 9.810104579645683, 0.04411667795911874, 89.99640017477533, 0, 0]
[0, 1.1705540684653055e-07, 9.810072880110965, 0.04411220733038805, 89.9964002016005, 0, 0]
[0, 1.1704328371539069e-07, 9.81004099677184, 0.0441076062416192, 89.99640022939764, 0, 0]
[0, 1.1703355107871501e-07, 9.810009423085937, 0.044102952090404254, 89.9964002576693, 0, 0]
[0, 1.1701986837016726e-07, 9.80997861034702, 0.04409831763608523, 89.9964002859792, 0, 0]
[0, 1.1700726766550706e-07, 9.809948964219279, 0.044093769679769794, 89.9964003138988, 0, 0]
[0, 1.1698709551880334e-07, 9.809920841959341, 0.04408936920215002, 89.9964003410454, 0, 0]
[0, 1.1698256685636377e-07, 9.809894550796589, 0.04408517042525059, 89.99640036707461, 0, 0]
[0, 1.1697394940361861e-07, 9.80987034713975, 0.04408122054497442, 89.99640039168793, 0, 0]
[0, 1.1696703855737101e-07, 9.809848436588132, 0.044077559393015484, 89.99640041461753, 0, 0]
[0, 1.169552431227743e-07, 9.809828974521286, 0.04407422021479755, 89.99640043566437, 0, 0]
[0, 1.1694789146813965e-07, 9.809812067876617, 0.04407122835492223, 89.99640045463713, 0, 0]
[0, 1.1693515519116954e-07, 9.809797776970134, 0.044068602543062385, 89.99640047142103, 0, 0]
[0, 1.1693692907587683e-07, 9.809786118199213, 0.04406635480765104, 89.99640048593189, 0, 0]
[0, 1.169282747274594e-07, 9.809777067221203, 0.0440644904220599, 89.99640049810843, 0, 0]
[0, 1.1692528981358614e-07, 9.809770562315967, 0.044063008736374074, 89.99640050795071, 0, 0]
[0, 1.1692365756697498e-07, 9.809766508222683, 0.04406190335603539, 89.99640051548164, 0, 0]
[0, 1.1692261806469999e-07, 9.809764780023835, 0.044061162974030656, 89.99640052077015, 0, 0]
[0, 1.1692172184756417e-07, 9.809765227349036, 0.04406077168784862, 89.99640052389273, 0, 0]
[0, 1.169197094902076e-07, 9.809767678577277, 0.04406070951379527, 89.99640052496422, 0, 0]
[0, 1.1690819957732262e-07, 9.809771945033003, 0.0440609529287462, 89.99640052412234, 0, 0]
[0, 1.1693939187568228e-07, 9.809777825016363, 0.0440614759232197, 89.99640052152019, 0, 0]
[0, 1.1692889067875873e-07, 9.809785107962652, 0.044062249998405696, 89.99640051732612, 0, 0]
[0, 1.1692192828530874e-07, 9.809793578210313, 0.04406324504893708, 89.99640051172383, 0, 0]
[0, 1.1692778042467734e-07, 9.809803018579995, 0.04406443008329583, 89.99640050488935, 0, 0]
[0, 1.169167553448411e-07, 9.809813213869946, 0.04406577333580708, 89.99640049702931, 0, 0]
[0, 1.1692071763293676e-07, 9.809823953801118, 0.04406724329900355, 89.99640048831975, 0, 0]
[0, 1.1696359622660829e-07, 9.80983503593553, 0.04406880862120742, 89.99640047896729, 0, 0]
[0, 1.1694218239560616e-07, 9.80984626802496, 0.04407043900298936, 89.99640046915563, 0, 0]
[0, 1.1694604695150235e-07, 9.809857470123355, 0.04407210549549003, 89.99640045905315, 0, 0]
[0, 1.1695283625690331e-07, 9.80986847646613, 0.044073780451000674, 89.99640044885116, 0, 0]
[0, 1.1696088050248639e-07, 9.80987913671171, 0.04407543844869973, 89.99640043868746, 0, 0]
[0, 1.1696243373819453e-07, 9.809889317137447, 0.044077056147361134, 89.99640042872274, 0, 0]
[0, 1.1696549536212824e-07, 9.809898901435805, 0.044078612192480965, 89.99640041909475, 0, 0]
[0, 1.1695645868505637e-07, 9.809907790949286, 0.04408008821193334, 89.99640040991068, 0, 0]
[0, 1.1698778744662767e-07, 9.809915905018, 0.044081468001731884, 89.99640040127764, 0, 0]
[0, 1.1698050887570206e-07, 9.809923180683889, 0.044082738167135385, 89.9964003932875, 0, 0]
[0, 1.1696999420157519e-07, 9.809929572333395, 0.04408388795546876, 89.99640038600911, 0, 0]
[0, 1.169936354473937e-07, 9.809935051094309, 0.04408490911666652, 89.99640037949608, 0, 0]
[0, 1.169862700126601e-07, 9.809939603972085, 0.04408579594488021, 89.99640037379429, 0, 0]
[0, 1.1698706271911218e-07, 9.80994323282508, 0.04408654520741834, 89.99640036891907, 0, 0]
[0, 1.1698576925521364e-07, 9.80994595325087, 0.04408715589456166, 89.99640036489339, 0, 0]
[0, 1.1699156423898798e-07, 9.809947793282474, 0.04408762910965805, 89.99640036170958, 0, 0]
[0, 1.1699327147663007e-07, 9.809948792009974, 0.04408796804580148, 89.99640035935232, 0, 0]
[0, 1.1697954864187357e-07, 9.809948998179204, 0.044088177576598116, 89.99640035779105, 0, 0]
[0, 1.1700264362068976e-07, 9.809948468704285, 0.04408826429050192, 89.99640035700273, 0, 0]
[0, 1.169963950159241e-07, 9.809947267276316, 0.044088235824618176, 89.9964003569262, 0, 0]
[0, 1.1699488808207745e-07, 9.809945462775458, 0.04408810119018511, 89.99640035752317, 0, 0]
[0, 1.1699094902188944e-07, 9.809943127900562, 0.04408787035586433, 89.99640035872474, 0, 0]
[0, 1.1698645470053657e-07, 9.809940337795299, 0.044087553927173076, 89.99640036047738, 0, 0]
[0, 1.169882868075328e-07, 9.809937168784609, 0.04408716282782748, 89.99640036270452, 0, 0]
[0, 1.1698884526185928e-07, 9.809933697033724, 0.044086708457719684, 89.99640036534494, 0, 0]
[0, 1.1697214806915728e-07, 9.809929997442696, 0.0440862024958847, 89.99640036832976, 0, 0]
[0, 1.169959843668077e-07, 9.809926142745958, 0.044085656101717836, 89.99640037158245, 0, 0]
[0, 1.1698676699970164e-07, 9.809922202391435, 0.044085080636533075, 89.99640037503414, 0, 0]
[0, 1.169832448151281e-07, 9.80991824192772, 0.04408448673986822, 89.99640037862358, 0, 0]
[0, 1.1696787205494045e-07, 9.809914322207637, 0.04408388466501653, 89.99640038228956, 0, 0]
[0, 1.1698895492287453e-07, 9.809910498842862, 0.0440832840956813, 89.9964003859632, 0, 0]
[0, 1.1697359277109091e-07, 9.809906821819489, 0.04408269388404232, 89.99640038959092, 0, 0]
[0, 1.1697726593300912e-07, 9.80990333516009, 0.04408212201399416, 89.99640039312678, 0, 0]
[0, 1.169713083672388e-07, 9.809900076661844, 0.04408157571664886, 89.99640039652489, 0, 0]
[0, 1.1697810403341865e-07, 9.809897077863573, 0.04408106128937667, 89.99640039973931, 0, 0]
[0, 1.1696983701286323e-07, 9.809894364025121, 0.044080584037031204, 89.99640040273178, 0, 0]
[0, 1.1696075605695219e-07, 9.809891954215837, 0.04408014837983596, 89.99640040548701, 0, 0]
[0, 1.1698221589985988e-07, 9.80988986153681, 0.04407975768422435, 89.99640040797436, 0, 0]
[0, 1.1696152564880328e-07, 9.809888093340444, 0.04407941439932751, 89.99640041017089, 0, 0]
[0, 1.1697519791628052e-07, 9.809886651547798, 0.044079120174734386, 89.9964004120766, 0, 0]
[0, 1.1695889867199947e-07, 9.809885533020136, 0.04407887588601616, 89.99640041367614, 0, 0]
[0, 1.1697549039770112e-07, 9.80988473010431, 0.0440786812617056, 89.99640041497722, 0, 0]
[0, 1.1697184153992854e-07, 9.809884230892214, 0.04407853574142865, 89.99640041597216, 0, 0]
[0, 1.169677493675068e-07, 9.8098840199387, 0.04407843764177742, 89.99640041666864, 0, 0]
[0, 1.1696587958147819e-07, 9.809884078570798, 0.04407838499079685, 89.99640041708956, 0, 0]
[0, 1.1696230352996338e-07, 9.809884385512357, 0.04407837525723, 89.99640041724264, 0, 0]
[0, 1.1696845183177128e-07, 9.809884917417346, 0.044078405253249665, 89.99640041714315, 0, 0]
[0, 1.1695244278895022e-07, 9.809885649299918, 0.044078471614076964, 89.9964004168217, 0, 0]
[0, 1.169886855319598e-07, 9.809886555070149, 0.04407857070837227, 89.99640041628597, 0, 0]
[0, 1.1696273459195058e-07, 9.809887608051419, 0.044078698461086245, 89.99640041555888, 0, 0]
[0, 1.1697710273882832e-07, 9.809888781323375, 0.04407885095199593, 89.99640041468639, 0, 0]
[0, 1.1695444778327114e-07, 9.80989004823097, 0.044079024044690156, 89.9964004136685, 0, 0]
[0, 1.1697445376685094e-07, 9.809891382744054, 0.04407921356502186, 89.99640041254344, 0, 0]
[0, 1.1697100350797138e-07, 9.809892759771762, 0.044079415479414366, 89.9964004113342, 0, 0]
[0, 1.1696714096420701e-07, 9.809894155528267, 0.04407962568851741, 89.99640041006376, 0, 0]
[0, 1.1695357416485672e-07, 9.809895547647738, 0.044079840673700965, 89.99640040876267, 0, 0]
[0, 1.1697811507415892e-07, 9.809896915618618, 0.044080056642153864, 89.99640040744629, 0, 0]
[0, 1.1697073758997364e-07, 9.80989824080247, 0.044080270298011294, 89.9964004061299, 0, 0]
[0, 1.1696371102952905e-07, 9.80989950653716, 0.04408047883082184, 89.99640040484412, 0, 0]
[0, 1.1694162028054056e-07, 9.80990069843063, 0.04408067930034302, 89.99640040360045, 0, 0]
[0, 1.169673360259196e-07, 9.809901804226989, 0.044080869288362745, 89.996400402418, 0, 0]
[0, 1.169795751247416e-07, 9.809902813885053, 0.044081046746981226, 89.9964004013006, 0, 0]
[0, 1.1699189723353642e-07, 9.809903719526845, 0.04408121008989901, 89.99640040027505, 0, 0]
[0, 1.169864000128351e-07, 9.809904515503463, 0.04408135774081869, 89.99640039933368, 0, 0]
[0, 1.1697732179160286e-07, 9.809905198147113, 0.0440814888467577, 89.99640039849946, 0, 0]
[0, 1.1696322447514267e-07, 9.809905765867605, 0.044081602425632256, 89.99640039776473, 0, 0]
[0, 1.1699333125688188e-07, 9.809906218791786, 0.04408169834009542, 89.99640039714097, 0, 0]
[0, 1.1697751030179352e-07, 9.809906558846086, 0.04408177632391998, 89.99640039662438, 0, 0]
[0, 1.1696261894081039e-07, 9.809906789468062, 0.0440818365874369, 89.99640039621875, 0, 0]
[0, 1.1695505202518119e-07, 9.809906915466133, 0.04408187955620757, 89.99640039592026, 0, 0]
[0, 1.1698772941634811e-07, 9.809906942867874, 0.04408190584894234, 89.99640039572128, 0, 0]
[0, 1.1697861036577569e-07, 9.809906878685943, 0.04408191641345539, 89.99640039562179, 0, 0]
[0, 1.1697821309313851e-07, 9.80990673082211, 0.0440819121611956, 89.99640039561413, 0, 0]
[0, 1.1696543697231816e-07, 9.809906507803573, 0.04408189428786563, 89.99640039569832, 0, 0]
[0, 1.1697334541061789e-07, 9.809906218606795, 0.04408186422475532, 89.99640039585904, 0, 0]
[0, 1.1697092286372603e-07, 9.809905872614479, 0.04408182310159663, 89.99640039608099, 0, 0]
[0, 1.1696967945133488e-07, 9.809905479271652, 0.044081772433391876, 89.99640039637181, 0, 0]
[0, 1.1695836510391082e-07, 9.809905048005996, 0.04408171382217578, 89.99640039671623, 0, 0]
[0, 1.1698252231303704e-07, 9.809904588160292, 0.04408164862009846, 89.9964003970989, 0, 0]
[0, 1.1697304186254928e-07, 9.809904108748759, 0.04408157839832355, 89.99640039751982, 0, 0]
[0, 1.1696027059136075e-07, 9.80990361845817, 0.044081504434071356, 89.99640039796373, 0, 0]
[0, 1.1698004480579435e-07, 9.80990312539946, 0.04408142828286263, 89.99640039842292, 0, 0]
[0, 1.1696992959391891e-07, 9.809902637176442, 0.04408135117248462, 89.99640039889744, 0, 0]
[0, 1.1698993812940002e-07, 9.809902160723452, 0.04408127436039956, 89.99640039936429, 0, 0]
[0, 1.1696585763250011e-07, 9.809901702295617, 0.04408119889061456, 89.99640039983116, 0, 0]
[0, 1.1698454691954956e-07, 9.809901267378333, 0.04408112585321199, 89.9964004002827, 0, 0]
[0, 1.1696703587792669e-07, 9.809900860678932, 0.04408105624416502, 89.99640040071894, 0, 0]
[0, 1.1697495867738852e-07, 9.809900486194065, 0.04408099066942771, 89.99640040112457, 0, 0]
[0, 1.1698795648319212e-07, 9.809900147058482, 0.04408092997070879, 89.99640040150724, 0, 0]
[0, 1.1697785567280655e-07, 9.809899845667092, 0.04408087472724741, 89.9964004018593, 0, 0]
[0, 1.1696228272705807e-07, 9.809899583718725, 0.04408082518702566, 89.9964004021731, 0, 0]
[0, 1.1698318008436636e-07, 9.809899362111455, 0.044080781867716086, 89.99640040245627, 0, 0]
[0, 1.1697235241928962e-07, 9.809899181171701, 0.044080744711223946, 89.99640040269352, 0, 0]
[0, 1.1697572674024512e-07, 9.809899040499381, 0.04408071396631141, 89.99640040289634, 0, 0]
[0, 1.1695948701198535e-07, 9.809898939176874, 0.044080689555669954, 89.99640040306089, 0, 0]
[0, 1.1698605166958752e-07, 9.809898875738494, 0.0440806714010381, 89.99640040318334, 0, 0]
[0, 1.1695770477590496e-07, 9.809898848244792, 0.04408065944487728, 89.99640040326753, 0, 0]
[0, 1.1699661556681115e-07, 9.809898854480796, 0.04408065304774962, 89.9964004033211, 0, 0]
[0, 1.1696047723110092e-07, 9.809898891737804, 0.04408065218462169, 89.99640040333641, 0, 0]
[0, 1.169972531451435e-07, 9.80989895712899, 0.04408065638015431, 89.9964004033211, 0, 0]
[0, 1.1698140679583573e-07, 9.809899047569399, 0.044080665170254094, 89.99640040327901, 0, 0]
[0, 1.1694765112738417e-07, 9.809899159802365, 0.04408067812017824, 89.9964004032063, 0, 0]
[0, 1.1696192034763639e-07, 9.809899290515686, 0.04408069467430782, 89.99640040311445, 0, 0]
[0, 1.1700381775453478e-07, 9.809899436354948, 0.04408071435827513, 89.99640040299965, 0, 0]
[0, 1.1697822142127512e-07, 9.809899594043337, 0.044080736437244326, 89.99640040286955, 0, 0]
[0, 1.1694692471624762e-07, 9.80989976024672, 0.04408076074659381, 89.99640040272413, 0, 0]
[0, 1.1698532163880088e-07, 9.809899931878373, 0.04408078657859318, 89.99640040257107, 0, 0]
[0, 1.1700074613674382e-07, 9.809900105935997, 0.04408081347692558, 89.99640040241036, 0, 0]
[0, 1.1696897855850535e-07, 9.80990027971253, 0.0440808407832533, 89.99640040224197, 0, 0]
[0, 1.1694262924170251e-07, 9.80990045060636, 0.044080868056295235, 89.9964004020736, 0, 0]
[0, 1.1697801432074467e-07, 9.809900616199267, 0.04408089522667077, 89.99640040191288, 0, 0]
[0, 1.1695299658767437e-07, 9.809900774479463, 0.04408092163874989, 89.99640040174451, 0, 0]
[0, 1.1698759670821031e-07, 9.809900923608161, 0.04408094702346662, 89.99640040159143, 0, 0]
[0, 1.1695201536972102e-07, 9.809901062062576, 0.04408097103453228, 89.99640040143836, 0, 0]
[0, 1.1694282127161036e-07, 9.809901188554557, 0.04408099349588528, 89.9964004013006, 0, 0]
[0, 1.1697437010850707e-07, 9.809901302122311, 0.044081014056107065, 89.9964004011705, 0, 0]
[0, 1.1700272158929125e-07, 9.80990140204012, 0.044081032585526016, 89.99640040104804, 0, 0]
[0, 1.169856142972859e-07, 9.809901487835882, 0.04408104896760658, 89.9964004009409, 0, 0]
[0, 1.1697613303038481e-07, 9.809901559264537, 0.0440810632325392, 89.99640040084905, 0, 0]
[0, 1.1697250137017578e-07, 9.809901616362222, 0.04408107520859887, 89.99640040077252, 0, 0]
[0, 1.1696935342957068e-07, 9.809901659330027, 0.04408108502712328, 89.9964004007113, 0, 0]
[0, 1.1697077466276114e-07, 9.809901688630108, 0.04408109255325356, 89.99640040065772, 0, 0]
[0, 1.16971645438237e-07, 9.809901704899334, 0.04408109762474452, 89.99640040061945, 0, 0]
[0, 1.1697488498941587e-07, 9.809901708771084, 0.04408110080449837, 89.9964004005965, 0, 0]
[0, 1.1694801685530407e-07, 9.809901701158921, 0.044081102036397694, 89.99640040058884, 0, 0]
[0, 1.1699502707547608e-07, 9.809901683053887, 0.04408110136947166, 89.99640040058884, 0, 0]
[0, 1.1698583180165482e-07, 9.809901655486616, 0.044081099132836886, 89.9964004005965, 0, 0]
[0, 1.1697608643420916e-07, 9.809901619648466, 0.04408109517438951, 89.99640040061945, 0, 0]
[0, 1.1697319950670766e-07, 9.809901576715797, 0.04408108963155617, 89.99640040065007, 0, 0]
[0, 1.1697216383693743e-07, 9.80990152771454, 0.044081083324685626, 89.99640040068834, 0, 0]
[0, 1.1696909813961596e-07, 9.809901473984162, 0.04408107576758083, 89.9964004007266, 0, 0]
[0, 1.169737714627204e-07, 9.809901416613695, 0.04408106747099925, 89.99640040078017, 0, 0]
[0, 1.1697230581492424e-07, 9.80990135675041, 0.0440810585626187, 89.99640040083375, 0, 0]
[0, 1.1697401866362166e-07, 9.809901295514072, 0.044081049081066206, 89.99640040088732, 0, 0]
[0, 1.169730950448733e-07, 9.809901233848795, 0.04408103949253334, 89.99640040094854, 0, 0]
[0, 1.1697131638845588e-07, 9.80990117278495, 0.04408102965694772, 89.99640040100977, 0, 0]
[0, 1.1697112033743075e-07, 9.809901113110177, 0.04408102006362609, 89.99640040106334, 0, 0]
[0, 1.1697378609101842e-07, 9.809901055654853, 0.04408101065908496, 89.99640040112457, 0, 0]
[0, 1.1697428217204104e-07, 9.809901001136112, 0.04408100148446723, 89.99640040117815, 0, 0]
[0, 1.1697479989805664e-07, 9.80990095013415, 0.044080992733823925, 89.99640040123937, 0, 0]
[0, 1.1697239264421589e-07, 9.80990090310507, 0.044080984624323014, 89.9964004012853, 0, 0]
[0, 1.1696831546342459e-07, 9.809900860585493, 0.04408097674674823, 89.99640040133121, 0, 0]
[0, 1.169808986154752e-07, 9.80990082267454, 0.04408096996534047, 89.99640040137714, 0, 0]
[0, 1.1696808005632353e-07, 9.809900789752836, 0.044080963657483443, 89.99640040141541, 0, 0]
[0, 1.1697115698202813e-07, 9.809900761818406, 0.04408095833624019, 89.99640040145368, 0, 0]
[0, 1.1697577162153794e-07, 9.809900739031656, 0.04408095357504283, 89.99640040148428, 0, 0]
[0, 1.16970723296121e-07, 9.809900721234198, 0.04408094981895382, 89.99640040150724, 0, 0]
[0, 1.1697541504928348e-07, 9.809900708343275, 0.0440809469532773, 89.99640040153021, 0, 0]
[0, 1.1694511866783446e-07, 9.809900700281032, 0.044080944564716694, 89.99640040154551, 0, 0]
[0, 1.16991566661307e-07, 9.80990069667947, 0.04408094313041015, 89.99640040155317, 0, 0]
[0, 1.1698408850965324e-07, 9.809900697309082, 0.04408094241941355, 89.99640040156082, 0, 0]
[0, 1.1697567696570742e-07, 9.809900701845832, 0.04408094235083358, 89.99640040156082, 0, 0]
[0, 1.1696972930793767e-07, 9.809900709947913, 0.04408094279037415, 89.99640040156082, 0, 0]
[0, 1.1696802948481777e-07, 9.809900721146795, 0.04408094400978733, 89.99640040155317, 0, 0]
[0, 1.1697158816869378e-07, 9.809900735092, 0.0440809457590495, 89.99640040154551, 0, 0]
[0, 1.169720707209647e-07, 9.80990075140009, 0.044080947811882334, 89.99640040153021, 0, 0]
[0, 1.1697239845056082e-07, 9.809900769606948, 0.04408095027269751, 89.99640040152255, 0, 0]
[0, 1.1697318746338551e-07, 9.809900789308491, 0.044080953094212914, 89.9964004014996, 0, 0]
[0, 1.1697508573926471e-07, 9.80990081007304, 0.04408095623107471, 89.99640040148428, 0, 0]
[0, 1.1697404924010933e-07, 9.809900831589367, 0.04408095933081966, 89.99640040146133, 0, 0]
[0, 1.1697327724888723e-07, 9.809900853374803, 0.04408096276060643, 89.99640040144601, 0, 0]
[0, 1.1697309364759038e-07, 9.809900875176162, 0.044080966073587254, 89.99640040142306, 0, 0]
[0, 1.1697317088625373e-07, 9.809900896566877, 0.04408096960106894, 89.9964004014001, 0, 0]
[0, 1.169728339046663e-07, 9.809900917321924, 0.04408097304062577, 89.99640040138479, 0, 0]
[0, 1.1697193042656232e-07, 9.809900937158734, 0.04408097645053717, 89.99640040136184, 0, 0]
[0, 1.1697260635628245e-07, 9.809900955865961, 0.04408097966779545, 89.99640040133887, 0, 0]
[0, 1.1697067405529969e-07, 9.809900973291239, 0.044080982536895665, 89.99640040132357, 0, 0]
[0, 1.1697408140192265e-07, 9.809900989171865, 0.04408098540979984, 89.99640040130826, 0, 0]
[0, 1.1697162832151282e-07, 9.809901003449715, 0.04408098799306456, 89.9964004012853, 0, 0]
[0, 1.1697322564305049e-07, 9.809901016038616, 0.04408099023181947, 89.99640040127764, 0, 0]
[0, 1.1697194263850462e-07, 9.809901026818487, 0.044080992371984436, 89.99640040126235, 0, 0]
[0, 1.1697229913991435e-07, 9.809901035821394, 0.04408099415317745, 89.99640040124703, 0, 0]
[0, 1.1697130807830878e-07, 9.809901043049388, 0.0440809955742241, 89.99640040123937, 0, 0]
[0, 1.1697450358234529e-07, 9.809901048497856, 0.04408099675365341, 89.99640040123172, 0, 0]
[0, 1.1697253284828536e-07, 9.809901052229216, 0.04408099762233317, 89.99640040122408, 0, 0]
[0, 1.1697305009314294e-07, 9.809901054260619, 0.044080998465838586, 89.99640040122408, 0, 0]
[0, 1.1697193107630924e-07, 9.809901054779578, 0.044080998894661, 89.99640040121642, 0, 0]
[0, 1.1697483551968098e-07, 9.809901053883369, 0.04408099897384299, 89.99640040121642, 0, 0]
[0, 1.1697632281272035e-07, 9.809901051686124, 0.04408099876795512, 89.99640040121642, 0, 0]
[0, 1.1697376185757745e-07, 9.809901048280889, 0.04408099838921968, 89.99640040121642, 0, 0]
[0, 1.1697053082682704e-07, 9.809901043785494, 0.044080997994480176, 89.99640040122408, 0, 0]
[0, 1.1697183143466367e-07, 9.809901038460563, 0.044080997155684774, 89.99640040122408, 0, 0]
[0, 1.1697228124908425e-07, 9.809901032296338, 0.04408099651651259, 89.99640040123172, 0, 0]
[0, 1.1697508016106767e-07, 9.809901025571179, 0.044080995558269956, 89.99640040123172, 0, 0]
[0, 1.1697149503660219e-07, 9.80990101838055, 0.0440809945780565, 89.99640040123937, 0, 0]
[0, 1.169748510070143e-07, 9.809901010897413, 0.044080993379600794, 89.99640040124703, 0, 0]
[0, 1.1697154253662649e-07, 9.809901003180652, 0.04408099236984732, 89.99640040125468, 0, 0]
[0, 1.1697186068684135e-07, 9.809900995505409, 0.04408099095052825, 89.99640040126235, 0, 0]
[0, 1.169751222404102e-07, 9.809900987818883, 0.04408098982402103, 89.99640040127, 0, 0]
[0, 1.1697377578777136e-07, 9.809900980355017, 0.044080988532141, 89.99640040127764, 0, 0]
[0, 1.1696910387899414e-07, 9.80990097315681, 0.04408098730000569, 89.9964004012853, 0, 0]
[0, 1.1697852795775878e-07, 9.809900966309579, 0.044080986143532626, 89.99640040129295, 0, 0]
[0, 1.1696819187374851e-07, 9.809900959889049, 0.04408098510045911, 89.9964004013006, 0, 0]
[0, 1.1697216047046e-07, 9.8099009539907, 0.04408098403644392, 89.99640040130826, 0, 0]
[0, 1.1697259942346206e-07, 9.80990094861935, 0.04408098314268068, 89.99640040130826, 0, 0]
[0, 1.1697553031125597e-07, 9.80990094385072, 0.04408098228074228, 89.99640040131591, 0, 0]
[0, 1.169725212491476e-07, 9.809900939703251, 0.044080981516689315, 89.99640040132357, 0, 0]
[0, 1.1697804012687385e-07, 9.809900936155904, 0.044080980970889354, 89.99640040132357, 0, 0]
[0, 1.1696834101287744e-07, 9.80990093328677, 0.04408098035921231, 89.99640040133121, 0, 0]
[0, 1.1697064311631015e-07, 9.80990093107054, 0.044080979782268936, 89.99640040133121, 0, 0]
[0, 1.1697038714159567e-07, 9.809900929418395, 0.044080979522789755, 89.99640040133887, 0, 0]
[0, 1.1697260073528826e-07, 9.809900928423495, 0.044080979105171385, 89.99640040133887, 0, 0]
[0, 1.1697519251518799e-07, 9.809900927995827, 0.044080978791377054, 89.99640040133887, 0, 0]
[0, 1.1697419597299763e-07, 9.809900928033942, 0.04408097881615395, 89.99640040133887, 0, 0]
[0, 1.1697313140823533e-07, 9.809900928586673, 0.04408097882104487, 89.99640040133887, 0, 0]
[0, 1.1697260621582665e-07, 9.809900929598479, 0.044080978873974726, 89.99640040133887, 0, 0]
[0, 1.1697318026245013e-07, 9.809900930950292, 0.04408097918635195, 89.99640040133887, 0, 0]
[0, 1.1697275298491969e-07, 9.809900932741717, 0.04408097921113515, 89.99640040133887, 0, 0]
[0, 1.1697296089889221e-07, 9.80990093475475, 0.044080979590672996, 89.99640040133887, 0, 0]
[0, 1.1697294076574009e-07, 9.809900937061933, 0.04408097977653477, 89.99640040133887, 0, 0]
[0, 1.1697025555293141e-07, 9.809900939494256, 0.04408098027860529, 89.99640040133887, 0, 0]
[0, 1.169741913271377e-07, 9.809900942124042, 0.0440809805596913, 89.99640040132357, 0, 0]
[0, 1.1697366765080541e-07, 9.809900944813977, 0.044080980990790976, 89.99640040132357, 0, 0]
[0, 1.1697323947538073e-07, 9.809900947561468, 0.04408098134910286, 89.99640040132357, 0, 0]
[0, 1.1697003604737646e-07, 9.809900950254237, 0.04408098194748141, 89.99640040132357, 0, 0]
[0, 1.1697447090653164e-07, 9.80990095293849, 0.04408098237259036, 89.99640040132357, 0, 0]
[0, 1.169738067167474e-07, 9.809900955564949, 0.044080982748564944, 89.99640040132357, 0, 0]
[0, 1.1697273244486146e-07, 9.80990095806142, 0.044080983164322005, 89.99640040130826, 0, 0]
[0, 1.169728920487378e-07, 9.80990096040624, 0.04408098357370876, 89.99640040130826, 0, 0]
[0, 1.1697260212349383e-07, 9.80990096261287, 0.04408098388245734, 89.99640040130826, 0, 0]
[0, 1.1697062389900061e-07, 9.809900964617844, 0.044080984185045725, 89.99640040130826, 0, 0]
[0, 1.169742459416716e-07, 9.80990096641331, 0.04408098451304833, 89.99640040130826, 0, 0]
[0, 1.1697396744423946e-07, 9.809900967993423, 0.04408098481251335, 89.99640040130826, 0, 0]
[0, 1.1697011380178725e-07, 9.809900969320902, 0.04408098519856974, 89.99640040130826, 0, 0]
[0, 1.1697454845857202e-07, 9.809900970500246, 0.0440809852175094, 89.99640040129295, 0, 0]
[0, 1.1697365796979172e-07, 9.809900971373278, 0.04408098555325093, 89.99640040129295, 0, 0]
[0, 1.1697283204857211e-07, 9.80990097207404, 0.04408098562985072, 89.99640040129295, 0, 0]
[0, 1.16970489204068e-07, 9.809900972525398, 0.04408098582337517, 89.99640040129295, 0, 0]
[0, 1.1697442700279195e-07, 9.809900972784769, 0.044080985930047396, 89.99640040129295, 0, 0]
[0, 1.1697371250071601e-07, 9.809900972889448, 0.04408098583735371, 89.99640040129295, 0, 0]
[0, 1.1697021887267645e-07, 9.809900972740708, 0.04408098600038055, 89.99640040129295, 0, 0]
[0, 1.1697445523715532e-07, 9.80990097248117, 0.044080985924252705, 89.99640040129295, 0, 0]
[0, 1.1697337809675583e-07, 9.80990097207186, 0.0440809858110995, 89.99640040129295, 0, 0]
[0, 1.1697343166066078e-07, 9.809900971498623, 0.044080985806039516, 89.99640040129295, 0, 0]
[0, 1.1697032435579811e-07, 9.809900970792969, 0.04408098583489627, 89.99640040129295, 0, 0]
[0, 1.169741215279971e-07, 9.809900970046565, 0.04408098566424263, 89.99640040129295, 0, 0]
[0, 1.16973991107927e-07, 9.809900969254912, 0.04408098535510557, 89.99640040129295, 0, 0]
[0, 1.1697040541015893e-07, 9.8099009682945, 0.044080985446994625, 89.99640040129295, 0, 0]
[0, 1.1697411328646338e-07, 9.80990096738968, 0.04408098517315983, 89.99640040129295, 0, 0]
[0, 1.1697419891533894e-07, 9.809900966389224, 0.04408098516572153, 89.99640040130826, 0, 0]
[0, 1.1697037208660665e-07, 9.809900965466577, 0.044080984825749875, 89.99640040130826, 0, 0]
[0, 1.1697426079107752e-07, 9.8099009644733, 0.044080984799584784, 89.99640040130826, 0, 0]
[0, 1.16973565965205e-07, 9.809900963519933, 0.0440809846976603, 89.99640040130826, 0, 0]
[0, 1.1697346128822554e-07, 9.809900962611042, 0.044080984565125, 89.99640040130826, 0, 0]
[0, 1.1697013074324326e-07, 9.809900961784516, 0.04408098429517412, 89.99640040130826, 0, 0]
[0, 1.1697417619620376e-07, 9.809900960937924, 0.04408098432078018, 89.99640040130826, 0, 0]
[0, 1.1697359647015322e-07, 9.809900960206958, 0.04408098416712782, 89.99640040130826, 0, 0]
[0, 1.1697352057679573e-07, 9.809900959543294, 0.044080984021491965, 89.99640040130826, 0, 0]
[0, 1.1697013047367937e-07, 9.809900958982, 0.0440809837606064, 89.99640040130826, 0, 0]
[0, 1.1697403310437472e-07, 9.809900958449699, 0.044080983703395915, 89.99640040130826, 0, 0]
[0, 1.1697366374893205e-07, 9.809900957969015, 0.04408098376774522, 89.99640040130826, 0, 0]
[0, 1.1697307241738456e-07, 9.8099009576168, 0.044080983664233644, 89.99640040130826, 0, 0]
[0, 1.1697308229495003e-07, 9.809900957371234, 0.044080983466391735, 89.99640040130826, 0, 0]
[0, 1.1697289646865062e-07, 9.809900957154584, 0.044080983475591154, 89.99640040130826, 0, 0]
[0, 1.1697057142075201e-07, 9.809900957014984, 0.04408098345478549, 89.99640040130826, 0, 0]
[0, 1.1697428451345043e-07, 9.809900956947752, 0.04408098346509246, 89.99640040130826, 0, 0]
[0, 1.1697331732306847e-07, 9.809900956979988, 0.044080983348516976, 89.99640040130826, 0, 0]
[0, 1.1697302187526091e-07, 9.80990095702958, 0.04408098344645361, 89.99640040130826, 0, 0]
[0, 1.169730393062779e-07, 9.809900957141647, 0.04408098349793959, 89.99640040130826, 0, 0]
[0, 1.1697287778887084e-07, 9.809900957306771, 0.044080983560781474, 89.99640040130826, 0, 0]
[0, 1.1697005350114326e-07, 9.809900957580602, 0.0440809833668696, 89.99640040130826, 0, 0]
[0, 1.1697427881477725e-07, 9.809900957801412, 0.04408098354388427, 89.99640040130826, 0, 0]
[0, 1.1697375816686545e-07, 9.809900958064661, 0.044080983661920516, 89.99640040130826, 0, 0]
[0, 1.1697282671709959e-07, 9.809900958391067, 0.04408098364703893, 89.99640040130826, 0, 0]
[0, 1.1697313327293395e-07, 9.809900958756776, 0.044080983536988326, 89.99640040130826, 0, 0]
[0, 1.1697011232003236e-07, 9.809900959113433, 0.044080983507975464, 89.99640040130826, 0, 0]
[0, 1.169741251890923e-07, 9.80990095940143, 0.044080983786658735, 89.99640040130826, 0, 0]
[0, 1.1697386281533389e-07, 9.809900959741448, 0.04408098381530929, 89.99640040130826, 0, 0]
[0, 1.1697352632694195e-07, 9.809900960075812, 0.04408098390333577, 89.99640040130826, 0, 0]
[0, 1.1697263228374524e-07, 9.809900960432218, 0.04408098383399282, 89.99640040130826, 0, 0]
[0, 1.1697277907871709e-07, 9.809900960760014, 0.04408098383358281, 89.99640040130826, 0, 0]
[0, 1.1697286785069121e-07, 9.809900961029024, 0.04408098395267661, 89.99640040130826, 0, 0]
[0, 1.1697287103814428e-07, 9.80990096128712, 0.044080984078059354, 89.99640040130826, 0, 0]
[0, 1.169730225160143e-07, 9.80990096152851, 0.04408098414779384, 89.99640040130826, 0, 0]
[0, 1.1697294223043792e-07, 9.80990096174772, 0.044080984202981566, 89.99640040130826, 0, 0]
[0, 1.1697279751349304e-07, 9.809900961944006, 0.04408098427622626, 89.99640040130826, 0, 0]
[0, 1.1697315092448668e-07, 9.809900962115362, 0.04408098431593468, 89.99640040130826, 0, 0]
[0, 1.1697254541138462e-07, 9.80990096229054, 0.04408098421272922, 89.99640040130826, 0, 0]
[0, 1.1697281923982965e-07, 9.809900962392383, 0.04408098429805306, 89.99640040130826, 0, 0]
[0, 1.1697294779399874e-07, 9.809900962503567, 0.04408098421055407, 89.99640040130826, 0, 0]
[0, 1.1697287901435396e-07, 9.80990096257677, 0.04408098416634755, 89.99640040130826, 0, 0]
[0, 1.1697302467062267e-07, 9.809900962554334, 0.0440809843876045, 89.99640040130826, 0, 0]
[0, 1.1697014548660951e-07, 9.809900962596423, 0.04408098427744297, 89.99640040130826, 0, 0]
[0, 1.1697417024772721e-07, 9.809900962570795, 0.04408098431454834, 89.99640040130826, 0, 0]
[0, 1.1697386897553778e-07, 9.809900962561752, 0.04408098422217905, 89.99640040130826, 0, 0]
[0, 1.1697278264631289e-07, 9.809900962492032, 0.044080984275714455, 89.99640040130826, 0, 0]
[0, 1.1697036833295439e-07, 9.809900962381155, 0.044080984413837544, 89.99640040130826, 0, 0]
[0, 1.1697449216998417e-07, 9.809900962307166, 0.04408098438148139, 89.99640040130826, 0, 0]
[0, 1.1697333150232793e-07, 9.809900962220249, 0.04408098435360346, 89.99640040130826, 0, 0]
[0, 1.1697283478672517e-07, 9.809900962121358, 0.04408098430892797, 89.99640040130826, 0, 0]
[0, 1.1697319773766045e-07, 9.8099009620137, 0.04408098428907713, 89.99640040130826, 0, 0]
[0, 1.1697289651259459e-07, 9.80990096193074, 0.04408098411516326, 89.99640040130826, 0, 0]
[0, 1.1697288994142531e-07, 9.809900961797803, 0.044080984149288585, 89.99640040130826, 0, 0]
[0, 1.1697288089515367e-07, 9.809900961670179, 0.04408098415940471, 89.99640040130826, 0, 0]
[0, 1.1697298162157695e-07, 9.8099009615456, 0.04408098412920983, 89.99640040130826, 0, 0]
[0, 1.1697306404277469e-07, 9.809900961393641, 0.0440809842511987, 89.99640040130826, 0, 0]
[0, 1.1697283220717973e-07, 9.809900961295318, 0.04408098420069241, 89.99640040130826, 0, 0]
[0, 1.1697251723368336e-07, 9.809900961227621, 0.04408098399571952, 89.99640040130826, 0, 0]
[0, 1.169728306335823e-07, 9.809900961085633, 0.04408098415422595, 89.99640040130826, 0, 0]
[0, 1.169734198309828e-07, 9.80990096100122, 0.044080984094183914, 89.99640040130826, 0, 0]
[0, 1.1696992112821434e-07, 9.809900960890724, 0.044080984193993825, 89.99640040130826, 0, 0]
[0, 1.1697409641029715e-07, 9.809900960864073, 0.04408098397416674, 89.99640040130826, 0, 0]
[0, 1.1697381898225874e-07, 9.809900960794765, 0.04408098399620859, 89.99640040130826, 0, 0]
[0, 1.1696996060868846e-07, 9.809900960704846, 0.04408098410536667, 89.99640040130826, 0, 0]
[0, 1.1697464009703873e-07, 9.809900960671339, 0.04408098405223802, 89.99640040130826, 0, 0]
[0, 1.1697358381615933e-07, 9.8099009606435, 0.04408098402845176, 89.99640040130826, 0, 0]
[0, 1.1697311287703245e-07, 9.80990096059021, 0.044080984121296664, 89.99640040130826, 0, 0]
[0, 1.169728484560852e-07, 9.809900960621372, 0.04408098393617184, 89.99640040130826, 0, 0]
[0, 1.1697281165267759e-07, 9.809900960609598, 0.044080983958527754, 89.99640040130826, 0, 0]
[0, 1.1697342041986908e-07, 9.80990096063751, 0.0440809838227824, 89.99640040130826, 0, 0]
[0, 1.1697253894634579e-07, 9.80990096062764, 0.04408098389133451, 89.99640040130826, 0, 0]
[0, 1.1697054439672549e-07, 9.809900960631435, 0.04408098392638424, 89.99640040130826, 0, 0]
[0, 1.1697413190246641e-07, 9.809900960613867, 0.04408098407452383, 89.99640040130826, 0, 0]
[0, 1.1697325736103315e-07, 9.809900960619537, 0.04408098417572993, 89.99640040130826, 0, 0]
[0, 1.169731436576743e-07, 9.809900960702551, 0.04408098396693575, 89.99640040130826, 0, 0]
[0, 1.1697321673684574e-07, 9.809900960704358, 0.044080984128502164, 89.99640040130826, 0, 0]
[0, 1.1697306958228697e-07, 9.80990096075592, 0.04408098407976256, 89.99640040130826, 0, 0]
[0, 1.1697017356603996e-07, 9.80990096080443, 0.04408098406204458, 89.99640040130826, 0, 0]
[0, 1.1697417285755646e-07, 9.809900960882679, 0.04408098393156545, 89.99640040130826, 0, 0]
[0, 1.1697378578644068e-07, 9.809900960913543, 0.04408098398000691, 89.99640040130826, 0, 0]
[0, 1.1697303856920605e-07, 9.80990096094848, 0.044080984013253874, 89.99640040130826, 0, 0]
[0, 1.169726969353236e-07, 9.809900960985823, 0.044080984035549095, 89.99640040130826, 0, 0]
[0, 1.1697294892359461e-07, 9.809900961022272, 0.04408098403549599, 89.99640040130826, 0, 0]
[0, 1.1697303450330248e-07, 9.809900961059068, 0.044080984072061985, 89.99640040130826, 0, 0]
[0, 1.1697317629618484e-07, 9.809900961095655, 0.04408098408163587, 89.99640040130826, 0, 0]
[0, 1.169486720580383e-07, 9.809900961145548, 0.04408098402730451, 89.99640040130826, 0, 0]
[0, 1.1699427761811448e-07, 9.809900961185427, 0.0440809839966971, 89.99640040130826, 0, 0]
[0, 1.169820135566647e-07, 9.809900961171149, 0.0440809841747345, 89.99640040130826, 0, 0]
[0, 1.1697624356158755e-07, 9.80990096120292, 0.04408098413338985, 89.99640040130826, 0, 0]
[0, 1.169688431898648e-07, 9.80990096122888, 0.04408098413532144, 89.99640040130826, 0, 0]
[0, 1.1697109196656832e-07, 9.809900961250252, 0.04408098413078629, 89.99640040130826, 0, 0]
[0, 1.1697212188270463e-07, 9.809900961267115, 0.044080984127948294, 89.99640040130826, 0, 0]
[0, 1.1697240316708395e-07, 9.8099009612798, 0.04408098412715839, 89.99640040130826, 0, 0]
[0, 1.1697301652306078e-07, 9.809900961288857, 0.04408098412663838, 89.99640040130826, 0, 0]
[0, 1.1697235938396358e-07, 9.809900961325795, 0.04408098400180208, 89.99640040130826, 0, 0]
[0, 1.1697275860458391e-07, 9.809900961313282, 0.04408098405109833, 89.99640040130826, 0, 0]
[0, 1.1697333034760069e-07, 9.809900961303267, 0.04408098407794521, 89.99640040130826, 0, 0]
[0, 1.1697281147558145e-07, 9.809900961293344, 0.04408098408518006, 89.99640040130826, 0, 0]
[0, 1.1697249421644021e-07, 9.809900961284177, 0.04408098411473284, 89.99640040130826, 0, 0]
[0, 1.1697336329290634e-07, 9.809900961274574, 0.04408098410656085, 89.99640040130826, 0, 0]
[0, 1.169727298118672e-07, 9.80990096126318, 0.04408098410791435, 89.99640040130826, 0, 0]
[0, 1.1697298109524622e-07, 9.80990096125072, 0.04408098410814341, 89.99640040130826, 0, 0]
[0, 1.1697288945272722e-07, 9.809900961205985, 0.04408098423148269, 89.99640040130826, 0, 0]
[0, 1.169728769571336e-07, 9.80990096120673, 0.04408098418019999, 89.99640040130826, 0, 0]
[0, 1.1697280644680657e-07, 9.809900961233156, 0.0440809840245257, 89.99640040130826, 0, 0]
[0, 1.1697453107026553e-07, 9.80990096117837, 0.04408098418217388, 89.99640040130826, 0, 0]
[0, 1.1696870362302863e-07, 9.809900961172575, 0.044080984142843026, 89.99640040130826, 0, 0]
[0, 1.1697646971491657e-07, 9.809900961163054, 0.04408098411839706, 89.99640040130826, 0, 0]
[0, 1.1697255181097185e-07, 9.809900961152076, 0.04408098411098089, 89.99640040130826, 0, 0]
[0, 1.1697273930011744e-07, 9.80990096114053, 0.044080984101417274, 89.99640040130826, 0, 0]
[0, 1.1699632182776641e-07, 9.809900961113033, 0.04408098415608932, 89.99640040130826, 0, 0]
[0, 1.1692846587408181e-07, 9.809900961108703, 0.04408098412737747, 89.99640040130826, 0, 0]
[0, 1.1695702133481957e-07, 9.80990096110248, 0.04408098410825126, 89.99640040130826, 0, 0]
[0, 1.1697659641843856e-07, 9.809900961095126, 0.04408098409658459, 89.99640040130826, 0, 0]
[0, 1.1698445384931582e-07, 9.809900961087616, 0.044080984088476306, 89.99640040130826, 0, 0]
[0, 1.1698250249408753e-07, 9.809900961080288, 0.044080984083575414, 89.99640040130826, 0, 0]
[0, 1.1697806644098284e-07, 9.809900961073847, 0.04408098407975597, 89.99640040130826, 0, 0]
[0, 1.1697731626285396e-07, 9.809900961068104, 0.0440809840770196, 89.99640040130826, 0, 0]
[0, 1.1697598581443383e-07, 9.809900961063436, 0.04408098407501493, 89.99640040130826, 0, 0]
[0, 1.169732804832277e-07, 9.809900961059574, 0.044080984074097905, 89.99640040130826, 0, 0]
[0, 1.1697184471781855e-07, 9.809900961057014, 0.04408098407249578, 89.99640040130826, 0, 0]
[0, 1.1697618588829387e-07, 9.809900961055176, 0.0440809840723388, 89.99640040130826, 0, 0]
[0, 1.1697652647911845e-07, 9.809900961054439, 0.04408098407185306, 89.99640040130826, 0, 0]
[0, 1.1699954650854029e-07, 9.80990096107044, 0.044080984009279484, 89.99640040130826, 0, 0]
[0, 1.1697933911956792e-07, 9.809900961064098, 0.04408098403401907, 89.99640040130826, 0, 0]
[0, 1.1697361367552067e-07, 9.809900961061528, 0.044080984052754776, 89.99640040130826, 0, 0]
[0, 1.1696510885682711e-07, 9.8099009610608, 0.044080984051268805, 89.99640040130826, 0, 0]
[0, 1.1696866602010378e-07, 9.809900961061704, 0.04408098406366731, 89.99640040130826, 0, 0]
[0, 1.1697165758093543e-07, 9.809900961064185, 0.04408098406721219, 89.99640040130826, 0, 0]
[0, 1.1697032402098911e-07, 9.809900961067568, 0.04408098406971553, 89.99640040130826, 0, 0]
[0, 1.1697243504433586e-07, 9.80990096107137, 0.044080984071884544, 89.99640040130826, 0, 0]
[0, 1.1697320008897182e-07, 9.809900961107346, 0.04408098394842478, 89.99640040130826, 0, 0]
[0, 1.1697616607826135e-07, 9.809900961066317, 0.044080984133024324, 89.99640040130826, 0, 0]
[0, 1.1697502743886861e-07, 9.809900961076632, 0.04408098410222318, 89.99640040130826, 0, 0]
[0, 1.1697157232657462e-07, 9.809900961084631, 0.044080984092744246, 89.99640040130826, 0, 0]
[0, 1.1697309869993835e-07, 9.80990096109108, 0.044080984083271095, 89.99640040130826, 0, 0]
[0, 1.1697646424455174e-07, 9.809900961097338, 0.04408098409121514, 89.99640040130826, 0, 0]
[0, 1.1697135400557416e-07, 9.809900961103066, 0.04408098408353141, 89.99640040130826, 0, 0]
[0, 1.1697297845242171e-07, 9.809900961107848, 0.044080984084019115, 89.99640040130826, 0, 0]
[0, 1.1697079581425754e-07, 9.809900961112223, 0.044080984084152036, 89.99640040130826, 0, 0]
[0, 1.1697337239666791e-07, 9.809900961116336, 0.04408098408463932, 89.99640040130826, 0, 0]
[0, 1.1697267884504808e-07, 9.809900961120048, 0.04408098408512325, 89.99640040130826, 0, 0]
[0, 1.169726644283857e-07, 9.809900961123219, 0.04408098408595692, 89.99640040130826, 0, 0]
[0, 1.1697258730890726e-07, 9.809900961156954, 0.044080983953316964, 89.99640040130826, 0, 0]
[0, 1.1697227173556253e-07, 9.809900961112998, 0.04408098413901559, 89.99640040130826, 0, 0]
[0, 1.1697316821993127e-07, 9.809900961121311, 0.04408098412706112, 89.99640040130826, 0, 0]
[0, 1.1697253854874929e-07, 9.809900961126989, 0.044080984103366874, 89.99640040130826, 0, 0]
[0, 1.1697265796383177e-07, 9.809900961130095, 0.044080984098129335, 89.99640040130826, 0, 0]
[0, 1.1697276218641245e-07, 9.809900961163018, 0.04408098396047766, 89.99640040130826, 0, 0]
[0, 1.1697308122446811e-07, 9.809900961117798, 0.04408098414400211, 89.99640040130826, 0, 0]
[0, 1.1697561952570975e-07, 9.80990096112468, 0.04408098413093641, 89.99640040130826, 0, 0]
[0, 1.1697123205080115e-07, 9.809900961128852, 0.044080984106129074, 89.99640040130826, 0, 0]
[0, 1.1697197491937195e-07, 9.809900961161482, 0.04408098396524459, 89.99640040130826, 0, 0]
[0, 1.1697243466270866e-07, 9.809900961115646, 0.04408098414660122, 89.99640040130826, 0, 0]
[0, 1.1697579045182885e-07, 9.809900961121777, 0.044080984132078484, 89.99640040130826, 0, 0]
[0, 1.1697142890426273e-07, 9.80990096115619, 0.04408098397234807, 89.99640040130826, 0, 0]
[0, 1.1697212306198597e-07, 9.809900961110714, 0.04408098414977619, 89.99640040130826, 0, 0]
[0, 1.1697331781731654e-07, 9.80990096111687, 0.04408098413416783, 89.99640040130826, 0, 0]
[0, 1.169724977186105e-07, 9.80990096115125, 0.04408098397299832, 89.99640040130826, 0, 0]
[0, 1.1697290756490404e-07, 9.80990096110563, 0.044080984150765404, 89.99640040130826, 0, 0]
[0, 1.1697334829693957e-07, 9.809900961111953, 0.04408098413301248, 89.99640040130826, 0, 0]
[0, 1.1697307305429133e-07, 9.809900961146134, 0.04408098397289637, 89.99640040130826, 0, 0]
[0, 1.1697271784125887e-07, 9.80990096110134, 0.044080984158473266, 89.99640040130826, 0, 0]
[0, 1.1697294213811795e-07, 9.809900961107239, 0.044080984120459736, 89.99640040130826, 0, 0]
[0, 1.1697318060311745e-07, 9.809900961141064, 0.04408098397241559, 89.99640040130826, 0, 0]
[0, 1.1697293231289935e-07, 9.809900961096599, 0.04408098415799026, 89.99640040130826, 0, 0]
[0, 1.1697314780483794e-07, 9.809900961102826, 0.0440809841199764, 89.99640040130826, 0, 0]
[0, 1.169729187040288e-07, 9.809900961136973, 0.04408098397157843, 89.99640040130826, 0, 0]
[0, 1.1697315054811395e-07, 9.809900961092886, 0.04408098415715642, 89.99640040130826, 0, 0]
[0, 1.1697300342974802e-07, 9.809900961099466, 0.04408098411950254, 89.99640040130826, 0, 0]
[0, 1.169728516379685e-07, 9.809900961133957, 0.044080983970755334, 89.99640040130826, 0, 0]
[0, 1.1697290254338062e-07, 9.809900961090156, 0.044080984157406196, 89.99640040130826, 0, 0]
[0, 1.1697582720838326e-07, 9.809900961097322, 0.04408098411869585, 89.99640040130826, 0, 0]
[0, 1.169715840003619e-07, 9.809900961132195, 0.04408098397102376, 89.99640040130826, 0, 0]
[0, 1.1697229516081807e-07, 9.809900961088879, 0.04408098415661914, 89.99640040130826, 0, 0]
[0, 1.1697287750777185e-07, 9.80990096109638, 0.04408098411862947, 89.99640040130826, 0, 0]
[0, 1.1697277959661332e-07, 9.809900961131644, 0.04408098397061275, 89.99640040130826, 0, 0]
[0, 1.1697311280984686e-07, 9.809900961088708, 0.04408098415657413, 89.99640040130826, 0, 0]
[0, 1.169731796079212e-07, 9.80990096109653, 0.04408098411859492, 89.99640040130826, 0, 0]
[0, 1.1697311124085001e-07, 9.809900961132113, 0.04408098397058851, 89.99640040130826, 0, 0]
[0, 1.1697299901069699e-07, 9.809900961089413, 0.044080984156914874, 89.99640040130826, 0, 0]
[0, 1.1697288663282035e-07, 9.809900961097526, 0.04408098411858997, 89.99640040130826, 0, 0]
[0, 1.1697304847884e-07, 9.809900961102375, 0.04408098410441496, 89.99640040130826, 0, 0]
[0, 1.1697339386690325e-07, 9.809900961136501, 0.04408098396316361, 89.99640040130826, 0, 0]
[0, 1.1697235307131986e-07, 9.809900961093113, 0.04408098415198304, 89.99640040130826, 0, 0]
[0, 1.1697311008937644e-07, 9.809900961100725, 0.04408098411615034, 89.99640040130826, 0, 0]
[0, 1.1697335908040168e-07, 9.809900961105257, 0.04408098410340115, 89.99640040130826, 0, 0]
[0, 1.1697317940856581e-07, 9.809900961139295, 0.044080983962154235, 89.99640040130826, 0, 0]
[0, 1.1697259786487247e-07, 9.80990096109572, 0.044080984152042306, 89.99640040130826, 0, 0]
[0, 1.1697290467419935e-07, 9.809900961103063, 0.04408098411656642, 89.99640040130826, 0, 0]
[0, 1.169732388129789e-07, 9.809900961107637, 0.04408098410381918, 89.99640040130826, 0, 0]
[0, 1.1697319196077666e-07, 9.809900961141585, 0.04408098396221741, 89.99640040130826, 0, 0]
