['ignore', 'EgoAccelerationX', 'EgoAccelerationY', 'egoAccelerationZ', 'egoSpeed', 'attackTime', 'ignore']
[0, 2.3551454584961837e-09, -0.012316057253194512, 0.0008875320568705016, 0.1425554603536299, 0, 0]
[0, 2.340532084877053e-09, -0.012244686280053303, 0.0008820248598009877, 0.2854091165743781, 0, 0]
[0, 2.3361171181479393e-09, -0.012220771360905703, 0.0008803608401477708, 0.42826339923596296, 0, 0]
[0, 2.3358565541728255e-09, -0.012217144088196612, 0.0008802624520315809, 0.571117684406557, 0, 0]
[0, 2.3372103044192105e-09, -0.01222133499169391, 0.0008807739085534511, 0.7139719700907299, 0, 0]
[0, 2.622380363107442e-05, 6.189797222832124, 9.882387927879142, 0.8568262559702273, 0, 0]
[0, 1.2040382783577367e-06, 3.9047534853868773, 0.4537394152659342, 0.9463859505375796, 0, 0]
[0, 2.54940307601988e-05, 8.441354362441743, 9.607374553731038, 1.1424307483685174, 0, 0]
[0, 2.3770160107656507e-05, 8.65473683667796, 8.957737124025474, 1.2330257838620984, 0, 0]
[0, 1.9755281631704966e-05, 10.380627692458441, 7.4447382886351035, 1.3816401976171944, 0, 0]
[0, 1.5758498748807066e-05, 11.986538716387525, 5.938558733208322, 1.532216735893221, 0, 0]
[0, 1.2747917540608094e-05, 13.33737766558613, 4.804027711274233, 1.6828150447206347, 0, 0]
[0, 1.0935207212487135e-05, 14.409348101103365, 4.120911250612645, 1.831545396268088, 0, 0]
[0, 1.0133662212046438e-05, 15.224668776103089, 3.818850348846893, 1.9779634627915479, 0, 0]
[0, 1.0016730695028703e-05, 15.82193787410176, 3.7747849641918476, 2.1224124901151473, 0, 0]
[0, 1.0269994073375122e-05, 16.23929659316677, 3.870226756099246, 2.265517966939692, 0, 0]
[0, 1.0658354736425327e-05, 16.507200724051287, 4.016579590426751, 2.40788850156261, 0, 0]
[0, 1.1038460588794863e-05, 16.647245609778256, 4.159821806638706, 2.549982094277313, 0, 0]
[0, 1.1343007136703705e-05, 16.673992231981412, 4.274589586538733, 2.6920798542398554, 0, 0]
[0, 1.1555733283495111e-05, 16.597690701092382, 4.354754925995342, 2.8343153208194938, 0, 0]
[0, 1.1687946243746253e-05, 16.426725920549323, 4.404579136339369, 2.976722547925583, 0, 0]
[0, 1.176120653397666e-05, 16.169311027384417, 4.432187195049893, 3.1192816242678902, 0, 0]
[0, 1.1796875755451698e-05, 15.834387088333145, 4.445629077000543, 3.261952406629853, 0, 0]
[0, 1.1811265671097976e-05, 15.431896816527416, 4.45105234520583, 3.404694952034235, 0, 0]
[0, 1.1814521595288073e-05, 14.972658101330948, 4.4522790356104744, 3.5474790308625974, 0, 0]
[0, 1.1811493076395719e-05, 14.46803815297576, 4.451136665305261, 3.690286344419238, 0, 0]
[0, 1.1803351133629072e-05, 13.92957158799662, 4.448069247750259, 3.8331088051903963, 0, 0]
[0, 1.1789221438275734e-05, 13.368606540397142, 4.442744469130486, 3.975945341805515, 0, 0]
[0, 1.176741075157286e-05, 12.79601640057493, 4.43452610643762, 4.118798711222871, 0, 0]
[0, 1.1736249188991567e-05, 12.22198479419331, 4.42278122566559, 4.261673008735673, 0, 0]
[0, 1.1694492747452982e-05, 11.655855829303365, 4.407044826423482, 4.40457204328285, 0, 0]
[0, 1.1641519897448511e-05, 11.106036184608048, 4.387083676438032, 4.547498466603306, 0, 0]
[0, 1.15773469807783e-05, 10.579935979290884, 4.362900125772266, 4.690453442347601, 0, 0]
[0, 1.1502533697344134e-05, 10.083938240948541, 4.334706799559976, 4.8334366433177465, 0, 0]
[0, 1.141811459283282e-05, 9.623390073333931, 4.302891458713472, 4.976446414249439, 0, 0]
[0, 1.1325469097526044e-05, 9.202611278087135, 4.267981697616417, 5.119479996559487, 0, 0]
[0, 1.1226308333609842e-05, 8.824917884337777, 4.2306127726264995, 5.262533760882925, 0, 0]
[0, 1.112251666643806e-05, 8.49265888388949, 4.191498507267038, 5.405603426339448, 0, 0]
[0, 1.1016123257036014e-05, 8.207264716695892, 4.151404080552385, 5.548684263229161, 0, 0]
[0, 1.0909225392225222e-05, 7.969305977617231, 4.1111196444007785, 5.691771282378062, 0, 0]
[0, 1.0803916846846409e-05, 7.778560638630367, 4.071434377092806, 5.834859414324855, 0, 0]
[0, 1.0702223255044418e-05, 7.634087931537985, 4.033111284114938, 5.977943678825835, 0, 0]
[0, 1.0606038528231352e-05, 7.534306980737221, 3.9968635445545386, 6.121019342175504, 0, 0]
[0, 1.051706082862961e-05, 7.4770783222696515, 3.963333406678797, 6.264082057929002, 0, 0]
[0, 1.0436764933751135e-05, 7.4597865773790195, 3.9330745924819195, 6.4071279860685575, 0, 0]
[0, 1.036635407788111e-05, 7.479422738472191, 3.9065389481757435, 6.55015388631891, 0, 0]
[0, 1.0306720689118003e-05, 7.532664741352082, 3.8840677705814928, 6.693157182798501, 0, 0]
[0, 1.0258482489113308e-05, 7.6159552195334985, 3.865887906439218, 6.836135999010908, 0, 0]
[0, 1.0221924450166787e-05, 7.725575545614167, 3.852112421368915, 6.979089164030974, 0, 0]
[0, 1.0197072984685062e-05, 7.85771545498842, 3.842745385403205, 7.12201619232262, 0, 0]
[0, 1.0183653193057901e-05, 8.008537712349346, 3.8376901431974715, 7.264917240860776, 0, 0]
[0, 1.0181186535195972e-05, 8.174237422789046, 3.836760325483614, 7.407793048025015, 0, 0]
[0, 1.0188969056889259e-05, 8.351095708436478, 3.8396928088300086, 7.550644859124904, 0, 0]
[0, 1.0206139329359812e-05, 8.535527570924952, 3.8461618377084603, 7.693474343450877, 0, 0]
[0, 1.0231702102367499e-05, 8.724123843767169, 3.8557935712144835, 7.836283507471739, 0, 0]
[0, 1.026455860470249e-05, 8.913687208725761, 3.8681804031801064, 7.979074608309458, 0, 0]
[0, 1.030360456699393e-05, 9.10126231144626, 3.8828945100415413, 8.12185007095787, 0, 0]
[0, 1.0347675580699352e-05, 9.284160064785185, 3.899500203449352, 8.264612411972896, 0, 0]
[0, 1.0395610775888075e-05, 9.4599762766415, 3.9175647911533407, 8.407364171576056, 0, 0]
[0, 1.0446300593785783e-05, 9.626604784644595, 3.93666777091101, 8.550107855350774, 0, 0]
[0, 1.0498684360859857e-05, 9.78224532205053, 3.956408298691569, 8.692845886020196, 0, 0]
[0, 1.0551763180167072e-05, 9.925406381684015, 3.976410965411221, 8.83558056517287, 0, 0]
[0, 1.0604620555275301e-05, 10.054903383922607, 3.996329998040098, 8.97831404433646, 0, 0]
[0, 1.0656417878575018e-05, 10.169852492983456, 4.015852057355319, 9.121048304427795, 0, 0]
[0, 1.0706436538886455e-05, 10.26966046196751, 4.034697838511557, 9.263785142382238, 0, 0]
[0, 1.0754002583337196e-05, 10.35401091863747, 4.052622698168787, 9.406526163673995, 0, 0]
[0, 1.0798564204300795e-05, 10.422847531762267, 4.069416528373091, 9.549272779434721, 0, 0]
[0, 1.083965490866474e-05, 10.476354519491824, 4.084903080837239, 9.69202620697963, 0, 0]
[0, 1.0876902928741651e-05, 10.514934976465664, 4.098938916105499, 9.834787472712252, 0, 0]
[0, 1.0910001495591261e-05, 10.539187502833148, 4.111412121290489, 9.977557416589123, 0, 0]
[0, 1.0938736589657207e-05, 10.54988161850116, 4.122240898531964, 10.120336697531448, 0, 0]
[0, 1.0962966709439101e-05, 10.547932435694355, 4.131372093720056, 10.263125799410181, 0, 0]
[0, 1.0982623477050814e-05, 10.534375045729693, 4.138779700736037, 10.405925037411507, 0, 0]
[0, 1.0997705641649877e-05, 10.510339050857414, 4.14446334819743, 10.548734564757973, 0, 0]
[0, 1.1008276148457505e-05, 10.47702363918491, 4.1484467575353285, 10.691554379889332, 0, 0]
[0, 1.1014457301260878e-05, 10.435673563152358, 4.1507761462391715, 10.834384334270382, 0, 0]
[0, 1.101642730089528e-05, 10.387556339056355, 4.151518544767944, 10.977224141034817, 0, 0]
[0, 1.1014414319217301e-05, 10.333940938868135, 4.150759997333911, 11.120073384663165, 0, 0]
[0, 1.100869251797392e-05, 10.276078198159098, 4.148603620574872, 11.262931531845128, 0, 0]
[0, 1.0999574173907583e-05, 10.215183114886608, 4.14516750620845, 11.405797943620284, 0, 0]
[0, 1.0987407080418357e-05, 10.15241916616681, 4.140582465451765, 11.548671888799376, 0, 0]
[0, 1.0972566370648722e-05, 10.088884724361929, 4.134989625534574, 11.691552558582911, 0, 0]
[0, 1.095544558572302e-05, 10.025601610059526, 4.128537903649078, 11.834439082211585, 0, 0]
[0, 1.0936454302332505e-05, 9.963505779913207, 4.1213813945321665, 11.977330543398413, 0, 0]
[0, 1.0916010049179293e-05, 9.903440111714868, 4.113676716920634, 12.120225997232167, 0, 0]
[0, 1.089452603188979e-05, 9.846149217262077, 4.105580372294387, 12.263124487202477, 0, 0]
[0, 1.087241068223523e-05, 9.792276186970785, 4.09724617186349, 12.406025061964598, 0, 0]
[0, 1.0850058161386629e-05, 9.742361148122459, 4.08882278769948, 12.548926791463325, 0, 0]
[0, 1.0827844375544671e-05, 9.69684150023949, 4.0804514833360255, 12.691828782054792, 0, 0]
[0, 1.0806120855461506e-05, 9.656053678246856, 4.072264071430122, 12.834730190289644, 0, 0]
[0, 1.0785198844918566e-05, 9.620236284138496, 4.064381139806078, 12.97763023507722, 0, 0]
[0, 1.0765375898170625e-05, 9.589534421773362, 4.056910578758755, 13.120528208007224, 0, 0]
[0, 1.0746897788067888e-05, 9.564005067215401, 4.049946430511686, 13.263423481664088, 0, 0]
[0, 1.072997110327445e-05, 9.543623306386483, 4.043568073945467, 13.40631551584808, 0, 0]
[0, 1.0714770672991193e-05, 9.528289275271222, 4.037839744169313, 13.549203861669957, 0, 0]
[0, 1.0701424276276517e-05, 9.517835641860552, 4.032810379515484, 13.692088163565288, 0, 0]
[0, 1.0690023240901565e-05, 9.512035475834452, 4.028513778658648, 13.834968159317897, 0, 0]
[0, 1.0680616856935277e-05, 9.510610360065808, 4.024969042232369, 13.977843678236683, 0, 0]
[0, 1.0673219128619158e-05, 9.513238606690319, 4.0221812695658405, 14.12071463767152, 0, 0]
[0, 1.06678093017463e-05, 9.519563451049855, 4.020142474659922, 14.26358103807564, 0, 0]
[0, 1.0664333179348905e-05, 9.529201107304345, 4.018832684231096, 14.406442956847254, 0, 0]
[0, 1.0662709379892352e-05, 9.541748581247187, 4.018221177828187, 14.549300541190384, 0, 0]
[0, 1.0662834127140733e-05, 9.556791146956261, 4.018267832903709, 14.692154000237476, 0, 0]
[0, 1.0664577232916857e-05, 9.573909406806587, 4.018924535391377, 14.835003596660082, 0, 0]
[0, 1.0667792496640814e-05, 9.59268586560144, 4.020136622082494, 14.977849637998396, 0, 0]
[0, 1.0672327922799335e-05, 9.612710962286892, 4.0218443215401045, 15.120692467902064, 0, 0]
[0, 1.0678001912335128e-05, 9.633588514071137, 4.023984166072441, 15.26353245747096, 0, 0]
[0, 1.0684655650812752e-05, 9.654940539833412, 4.026490349444125, 15.406369996846605, 0, 0]
[0, 1.0692097140610646e-05, 9.67641144070715, 4.029296010023757, 15.54920548719154, 0, 0]
[0, 1.0700163502890866e-05, 9.697671526488698, 4.032334422935733, 15.69203933316423, 0, 0]
[0, 1.0708666292935567e-05, 9.718419886773395, 4.035540088483785, 15.83487193597397, 0, 0]
[0, 1.0717449829091249e-05, 9.738386615090043, 4.038849707690946, 15.977703687081664, 0, 0]
[0, 1.0726348766452857e-05, 9.757334403079852, 4.0422030391869805, 16.120534962589513, 0, 0]
[0, 1.0735213194450915e-05, 9.775059529534545, 4.045543634613957, 16.263366118346436, 0, 0]
[0, 1.0743905677861666e-05, 9.791392276331838, 4.048819451285327, 16.406197485781583, 0, 0]
[0, 1.0752305180039014e-05, 9.806196808796015, 4.051983344872132, 16.54902936846643, 0, 0]
[0, 1.0760290589054642e-05, 9.819370563828093, 4.054993443719043, 16.691862039388962, 0, 0]
[0, 1.0767766789779804e-05, 9.830843192212331, 4.057813411442232, 16.834695738926623, 0, 0]
[0, 1.0774668292401377e-05, 9.840575105526149, 4.060412602003203, 16.977530673479645, 0, 0]
[0, 1.0780917709346043e-05, 9.848555679565814, 4.062766114483949, 17.12036701473905, 0, 0]
[0, 1.0786455811145934e-05, 9.854801167322806, 4.064854755735791, 17.263204899546025, 0, 0]
[0, 1.0791259988205503e-05, 9.859352375339673, 4.066664917373457, 17.406044430296344, 0, 0]
[0, 1.0795304672580258e-05, 9.862272155863415, 4.068188377196894, 17.548885675849718, 0, 0]
[0, 1.079857772489432e-05, 9.863642766867738, 4.06942203172764, 17.691728672885368, 0, 0]
[0, 1.0801084247521974e-05, 9.863563148767504, 4.070367571264903, 17.834573427661898, 0, 0]
[0, 1.0802845684632692e-05, 9.862146165486667, 4.071031103463619, 17.977419918114997, 0, 0]
[0, 1.0803885431395172e-05, 9.859515853003183, 4.071422736954066, 18.12026809625331, 0, 0]
[0, 1.0804240549461953e-05, 9.855804715877076, 4.071556132725813, 18.263117890784002, 0, 0]
[0, 1.0803953599447507e-05, 9.85115110806254, 4.071448032324204, 18.40596920992059, 0, 0]
[0, 1.0803076820952306e-05, 9.845696730201393, 4.071117771456571, 18.548821944313946, 0, 0]
[0, 1.0801667623475426e-05, 9.839584271281831, 4.070586787780664, 18.69167597005748, 0, 0]
[0, 1.0799787069656917e-05, 9.832955218386294, 4.069878130015589, 18.834531151709257, 0, 0]
[0, 1.079749937854726e-05, 9.825947853684593, 4.06901597649278, 18.977387345287795, 0, 0]
[0, 1.07948698912618e-05, 9.818695453606786, 4.068025170004808, 19.120244401193816, 0, 0]
[0, 1.0791965294376996e-05, 9.811324701177032, 4.066930774471517, 19.263102167012043, 0, 0]
[0, 1.0788852356814775e-05, 9.803954318026626, 4.065757660284322, 19.405960490164585, 0, 0]
[0, 1.0785595536817973e-05, 9.796693919508582, 4.064530121501534, 19.54881922037289, 0, 0]
[0, 1.0782255637918499e-05, 9.789643092146228, 4.063271530129495, 19.691678211909107, 0, 0]
[0, 1.0778892444288741e-05, 9.78289068996414, 4.0620040298088895, 19.83453732560957, 0, 0]
[0, 1.0775560401633426e-05, 9.776514342918325, 4.060748271785706, 19.977396430636112, 0, 0]
[0, 1.0772310376366072e-05, 9.77058016853126, 4.059523193694859, 20.120255405971758, 0, 0]
[0, 1.0769184303991864e-05, 9.765142675058176, 4.058345842694812, 20.263114141646266, 0, 0]
[0, 1.0766227123948807e-05, 9.760244843019068, 4.057231242107288, 20.40597253969185, 0, 0]
[0, 1.0763470534907963e-05, 9.755918370288326, 4.056192300499958, 20.548830514828598, 0, 0]
[0, 1.0760942872644207e-05, 9.752184064375356, 4.055239762489081, 20.691687994894654, 0, 0]
[0, 1.0758667128490645e-05, 9.74905236522217, 4.054382197772176, 20.834544921024754, 0, 0]
[0, 1.075666018637611e-05, 9.746523980629947, 4.0536260268788915, 20.977401247601414, 0, 0]
[0, 1.0754934862951616e-05, 9.744590616640679, 4.052975579561891, 21.12025694199043, 0, 0]
[0, 1.0753498102355642e-05, 9.74323578483706, 4.052433182891197, 21.26311198408655, 0, 0]
[0, 1.0752344952688285e-05, 9.742435668901184, 4.051999275369425, 21.405966365687505, 0, 0]
[0, 1.0751475335537267e-05, 9.742160033310643, 4.051672542817172, 21.548820089722135, 0, 0]
[0, 1.0750885838081899e-05, 9.7423731576897, 4.051450072205953, 21.691673169357166, 0, 0]
[0, 1.0750564907983114e-05, 9.743034781112135, 4.051327519572957, 21.83452562700701, 0, 0]
[0, 1.0750485333849175e-05, 9.744101041658825, 4.051299288770357, 21.97737749326899, 0, 0]
[0, 1.0750643433787312e-05, 9.745525398210658, 4.051358715559358, 22.120228805807148, 0, 0]
[0, 1.075101408544137e-05, 9.747259521795923, 4.0514982556279175, 22.263079608212372, 0, 0]
[0, 1.0751575275461588e-05, 9.74925414604512, 4.051709671819666, 22.405929948851036, 0, 0]
[0, 1.0752304456226363e-05, 9.751459867252585, 4.051984218002048, 22.548779879728684, 0, 0]
[0, 1.075317569740719e-05, 9.753827885991289, 4.052312817081403, 22.691629455382717, 0, 0]
[0, 1.0754166575989963e-05, 9.756310684015254, 4.052686230052239, 22.834478731819026, 0, 0]
[0, 1.0755252093677315e-05, 9.75886263101717, 4.0530952151546105, 22.9773277655118, 0, 0]
[0, 1.0756408191138937e-05, 9.76144051799013, 4.053530674051034, 23.120176612467876, 0, 0]
[0, 1.0757609492863906e-05, 9.764004014517836, 4.053983784841942, 23.263025327376536, 0, 0]
[0, 1.0758836983610625e-05, 9.766516049142014, 4.054446120230256, 23.405873962842925, 0, 0]
[0, 1.0760066836899876e-05, 9.768943112976613, 4.054909750205207, 23.548722568715057, 0, 0]
[0, 1.0761281641635807e-05, 9.771255487794187, 4.055367328984857, 23.691571191506938, 0, 0]
[0, 1.0762461191850287e-05, 9.773427400957678, 4.055812165827355, 23.83441987391927, 0, 0]
[0, 1.0763593180486166e-05, 9.775437110350417, 4.056238280101487, 23.97726865445749, 0, 0]
[0, 1.0764660656124314e-05, 9.77726692325782, 4.05664044107375, 24.120117567146213, 0, 0]
[0, 1.0765651806666801e-05, 9.778903154080327, 4.057014192225973, 24.262966641335744, 0, 0]
[0, 1.0766556166764855e-05, 9.780336025760542, 4.057355862210905, 24.40581590159875, 0, 0]
[0, 1.0767370882291906e-05, 9.781559520898352, 4.057662562042726, 24.5486653677097, 0, 0]
[0, 1.0768086602913896e-05, 9.782571188364347, 4.0579321704071045, 24.691515054700822, 0, 0]
[0, 1.076870030664999e-05, 9.7833719116073, 4.058163308059863, 24.834364972990663, 0, 0]
[0, 1.0769209763880653e-05, 9.783965644997878, 4.058355302476572, 24.977215128573633, 0, 0]
[0, 1.0769615843061075e-05, 9.784359124455912, 4.0585081441365505, 25.120065523265133, 0, 0]
[0, 1.0769918781812899e-05, 9.784561558552578, 4.05862243589811, 25.262916154995278, 0, 0]
[0, 1.0770123407571822e-05, 9.784584306212947, 4.058699336322249, 25.405767018137873, 0, 0]
[0, 1.0770233140973292e-05, 9.784440546607083, 4.058740499011685, 25.548618103873803, 0, 0]
[0, 1.077025447942663e-05, 9.784144946850946, 4.058748008711642, 25.69146940057517, 0, 0]
[0, 1.0770190563011958e-05, 9.783713332507586, 4.05872431556901, 25.834320894201813, 0, 0]
[0, 1.0770046224125522e-05, 9.783162365621044, 4.0586721686926985, 25.977172568708863, 0, 0]
[0, 1.0769845553841415e-05, 9.78250923440202, 4.05859455018991, 26.120024406452842, 0, 0]
[0, 1.0769581305527553e-05, 9.781771358354396, 4.058494610619865, 26.26287638859157, 0, 0]
[0, 1.0769261862736632e-05, 9.780966111969668, 4.05837560694927, 26.405728495472555, 0, 0]
[0, 1.0768905514647737e-05, 9.780110569835387, 4.058240843302157, 26.548580707000358, 0, 0]
[0, 1.0768517401447715e-05, 9.779221275178806, 4.058093615814389, 26.691433002991538, 0, 0]
[0, 1.0768107507114126e-05, 9.77831403363605, 4.057937161697128, 26.834285363491777, 0, 0]
[0, 1.0767662996786132e-05, 9.777403733342481, 4.057774613296319, 26.977137769075313, 0, 0]
[0, 1.0767229181908208e-05, 9.776504192094642, 4.057608957282487, 27.11999020110708, 0, 0]
[0, 1.0766788547786326e-05, 9.77562803183498, 4.057442999239541, 27.262842641971346, 0, 0]
[0, 1.0766355021074426e-05, 9.774786580221056, 4.057279333992303, 27.40569507527214, 0, 0]
[0, 1.0765932781820205e-05, 9.773989798851726, 4.057120321232128, 27.54854748599206, 0, 0]
[0, 1.0765528820624597e-05, 9.773246237082978, 4.056968066903493, 27.691399860622862, 0, 0]
[0, 1.0765147795948448e-05, 9.772563010260129, 4.056824410158194, 27.834252187260162, 0, 0]
[0, 1.0764793767258046e-05, 9.77194580095667, 4.056690915153111, 27.977104455661802, 0, 0]
[0, 1.076446964656477e-05, 9.771398881428802, 4.056568867825128, 28.11995665728372, 0, 0]
[0, 1.0764178800907439e-05, 9.770925155222924, 4.0564592778104975, 28.262808785278512, 0, 0]
[0, 1.0763922794557417e-05, 9.770526216318034, 4.05636288346332, 28.40566083447201, 0, 0]
[0, 1.0763700614538392e-05, 9.770202422993833, 4.056280162072543, 28.548512801314942, 0, 0]
[0, 1.0763522023261911e-05, 9.769952984953996, 4.056211341949907, 28.691364683809294, 0, 0]
[0, 1.076337545832552e-05, 9.769776060746004, 4.056156418644777, 28.83421648142412, 0, 0]
[0, 1.076326474709764e-05, 9.769668863759849, 4.056115172806202, 28.97706819498479, 0, 0]
[0, 1.0763193003861211e-05, 9.769627774341371, 4.056087190252878, 29.119919826558903, 0, 0]
[0, 1.0763151665402297e-05, 9.769648455953886, 4.056071883591652, 29.26277137932479, 0, 0]
[0, 1.0763141677393113e-05, 9.769725973426397, 4.056068514588633, 29.405622857437994, 0, 0]
[0, 1.0763162489747665e-05, 9.769854911239133, 4.056076217462813, 29.548474265889016, 0, 0]
[0, 1.076321018533373e-05, 9.770029490255723, 4.0560940220174295, 29.691325610361933, 0, 0]
[0, 1.0763281008676747e-05, 9.770243681078727, 4.056120876959433, 29.834176897092835, 0, 0]
[0, 1.0763373389825468e-05, 9.770491312797152, 4.056155672315783, 29.97702813272774, 0, 0]
[0, 1.0763483537532436e-05, 9.770766175701688, 4.0561972611753525, 30.11987932419106, 0, 0]
[0, 1.0763608913981927e-05, 9.771062116901565, 4.056244480468241, 30.262730478554055, 0, 0]
[0, 1.0763746807419079e-05, 9.77137312807796, 4.0562961699361155, 30.405581602913816, 0, 0]
[0, 1.0763891881415843e-05, 9.77169342445276, 4.056351189993273, 30.548432704282764, 0, 0]
[0, 1.0764043800306486e-05, 9.772017514550024, 4.05640843782287, 30.69128378948583, 0, 0]
[0, 1.0764198937686783e-05, 9.772340260440354, 4.05646686144233, 30.83413486506953, 0, 0]
[0, 1.0764354771908801e-05, 9.772656928201085, 4.056525471971755, 30.976985937221638, 0, 0]
[0, 1.0764508203306429e-05, 9.77296322857986, 4.056583354007904, 31.119837011704686, 0, 0]
[0, 1.0764657295552458e-05, 9.773255347946092, 4.0566396741739545, 31.26268809379855, 0, 0]
[0, 1.0764800750433106e-05, 9.773529969920668, 4.056693687423826, 31.405539188257443, 0, 0]
[0, 1.0764936554179194e-05, 9.77378428790577, 4.056744741714916, 31.548390299277333, 0, 0]
[0, 1.0765062446900017e-05, 9.774016008990543, 4.056792281147355, 31.69124143047445, 0, 0]
[0, 1.0765181069509958e-05, 9.774223350107503, 4.056835846476019, 31.83409258487236, 0, 0]
[0, 1.0765280361601376e-05, 9.774405026604764, 4.056875075134285, 31.97694376490581, 0, 0]
[0, 1.0765372001307897e-05, 9.774560234299306, 4.056909699300971, 32.119794972425474, 0, 0]
[0, 1.0765456626983435e-05, 9.774688625794434, 4.05693954233243, 32.2626462087157, 0, 0]
[0, 1.076551732333115e-05, 9.774790281519207, 4.056964514760823, 32.40549747451934, 0, 0]
[0, 1.0765571590091914e-05, 9.774865676687966, 4.0569846086763315, 32.54834877006792, 0, 0]
[0, 1.0765615372545102e-05, 9.774915644661881, 4.056999891814877, 32.691200095118425, 0, 0]
[0, 1.076563618203565e-05, 9.774941337881257, 4.057010500170218, 32.83405144899163, 0, 0]
[0, 1.0765661082308893e-05, 9.774944186663694, 4.0570166311615035, 32.97690283062108, 0, 0]
[0, 1.0765658661643135e-05, 9.774925857154267, 4.057018535386468, 33.119754238594005, 0, 0]
[0, 1.076566528434969e-05, 9.774888208695543, 4.057016508932749, 33.26260567120489, 0, 0]
[0, 1.0765646425175255e-05, 9.7748332515538, 4.057010885251995, 33.40545712650045, 0, 0]
[0, 1.0765618035314298e-05, 9.774763105574339, 4.057002026944631, 33.548308602331986, 0, 0]
[0, 1.0765587181385863e-05, 9.774679960115352, 4.056990318341284, 33.69116009640253, 0, 0]
[0, 1.0765549312357056e-05, 9.774586036146735, 4.056976157444901, 33.83401160631129, 0, 0]
[0, 1.0765508119085505e-05, 9.774483550427847, 4.056959949351977, 33.97686312960346, 0, 0]
[0, 1.07654604635146e-05, 9.774374682711516, 4.056942098895288, 34.119714663806505, 0, 0]
[0, 1.0765409696946829e-05, 9.774261545689777, 4.056923004913594, 34.26256620647421, 0, 0]
[0, 1.0765356666993338e-05, 9.774146158340587, 4.056903054375193, 34.40541775521919, 0, 0]
[0, 1.0765302435972514e-05, 9.77403042258105, 4.056882617521082, 34.548269307745905, 0, 0]
[0, 1.0765247558760361e-05, 9.773916103466012, 4.056862043448176, 34.69112086187888, 0, 0]
[0, 1.0765193207102038e-05, 9.773804812925757, 4.056841656240702, 34.83397241558565, 0, 0]
[0, 1.0765141954147858e-05, 9.773697996916004, 4.0568217523046455, 34.97682396699832, 0, 0]
[0, 1.076508956116045e-05, 9.773596926134552, 4.056802597728407, 35.119675514428344, 0, 0]
[0, 1.0765041750897149e-05, 9.773502689996906, 4.056784426657232, 35.26252705637759, 0, 0]
[0, 1.0764996649191638e-05, 9.773416193827392, 4.056767440073376, 35.40537859154927, 0, 0]
[0, 1.0764948517661515e-05, 9.773338158960442, 4.056751805428891, 35.54823011884943, 0, 0]
[0, 1.07649220779139e-05, 9.773269125630057, 4.056737656699483, 35.691081637388365, 0, 0]
[0, 1.0764886075011489e-05, 9.77320945837783, 4.056725094877532, 35.833933146479175, 0, 0]
[0, 1.0764855314362703e-05, 9.773159353711899, 4.05671418893629, 35.97678464563301, 0, 0]
[0, 1.0764831098165734e-05, 9.773118849656223, 4.056704977324971, 36.11963613454946, 0, 0]
[0, 1.0764812104308845e-05, 9.773087837047928, 4.056697469708119, 36.26248761310704, 0, 0]
[0, 1.0764796231541797e-05, 9.77306607213412, 4.0566916490530565, 36.40533908135262, 0, 0]
[0, 1.076478167287046e-05, 9.773053190270975, 4.056687474109688, 36.54819053948616, 0, 0]
[0, 1.0764778670556074e-05, 9.773048720512278, 4.056684881546769, 36.691041987845345, 0, 0]
[0, 1.0764774254108467e-05, 9.773052100545366, 4.056683788967947, 36.83389342689226, 0, 0]
[0, 1.0764775626434772e-05, 9.773062692016168, 4.056684097489253, 36.976744857194205, 0, 0]
[0, 1.0764779646885628e-05, 9.773079795784966, 4.056685694574824, 37.119596279407475, 0, 0]
[0, 1.0764786724874842e-05, 9.773102667011075, 4.05668845675736, 37.26244769426008, 0, 0]
[0, 1.0764797435126764e-05, 9.7731305297739, 4.056692252313249, 37.40529910253843, 0, 0]
[0, 1.0764809589441199e-05, 9.77316259106083, 4.056696943966335, 37.548150505065244, 0, 0]
[0, 1.0764823946908359e-05, 9.773198053932523, 4.056702391583336, 37.69100190269005, 0, 0]
[0, 1.0764840304698482e-05, 9.773236129917304, 4.0567084540759035, 37.83385329626717, 0, 0]
[0, 1.0764858017605738e-05, 9.773276050139115, 4.056714992104292, 37.97670468665187, 0, 0]
[0, 1.0764876822524437e-05, 9.773317075518188, 4.056721869640183, 38.119556074678364, 0, 0]
[0, 1.0764894945754979e-05, 9.77335850557922, 4.056728956167568, 38.26240746115217, 0, 0]
[0, 1.076491394208629e-05, 9.773399686222522, 4.05673612782387, 38.405258846842464, 0, 0]
[0, 1.0764932424611623e-05, 9.773440015990058, 4.05674326919292, 38.54811023246962, 0, 0]
[0, 1.076495106744104e-05, 9.773478951261035, 4.056750274144985, 38.690961618699475, 0, 0]
[0, 1.0764969351639185e-05, 9.773516010129178, 4.056757046657909, 38.83381300613762, 0, 0]
[0, 1.0764986429157106e-05, 9.773550774992298, 4.0567635017501535, 38.976664395325514, 0, 0]
[0, 1.0765002186735794e-05, 9.773582894077833, 4.056769565682116, 39.119515786734816, 0, 0]
[0, 1.076501745445806e-05, 9.773612081790397, 4.056775176394239, 39.262367180767306, 0, 0]
[0, 1.0765031007572882e-05, 9.773638118053475, 4.056780283532101, 39.40521857775689, 0, 0]
[0, 1.0765043088980691e-05, 9.773660846823613, 4.0567848479844395, 39.54806997796185, 0, 0]
[0, 1.0765050636318017e-05, 9.77368017351945, 4.05678884206779, 39.69092138157641, 0, 0]
[0, 1.0765061116037044e-05, 9.773696061929904, 4.056792248798525, 39.833772788726826, 0, 0]
[0, 1.0765072111789035e-05, 9.773708530362676, 4.05679506141722, 39.9766241994753, 0, 0]
[0, 1.0765076482926921e-05, 9.773717647306919, 4.056797282651241, 40.11947561382566, 0, 0]
[0, 1.076507823769178e-05, 9.773723526624888, 4.056798924024592, 40.26232703172528, 0, 0]
[0, 1.0765081901001353e-05, 9.773726322492426, 4.056800004779786, 40.40517845307467, 0, 0]
[0, 1.0765086533676162e-05, 9.773726223971144, 4.056800551381743, 40.54802987772745, 0, 0]
[0, 1.0765085488216328e-05, 9.77372344963498, 4.0568005961539155, 40.690881305499, 0, 0]
[0, 1.0765084093792615e-05, 9.773718241995777, 4.056800176660304, 40.83373273617309, 0, 0]
[0, 1.0765078888578239e-05, 9.773710862081137, 4.0567993346159925, 40.97658416950388, 0, 0]
[0, 1.0765076751297005e-05, 9.773701584148668, 4.056798114793404, 41.11943560522539, 0, 0]
[0, 1.0765075978351358e-05, 9.77369069049704, 4.056796564352135, 41.26228704305733, 0, 0]
[0, 1.0765068964267408e-05, 9.773678466646471, 4.056794731787197, 41.40513848270599, 0, 0]
[0, 1.0765063400936693e-05, 9.773665196774326, 4.056792666165024, 41.54798992387577, 0, 0]
[0, 1.0765057381594125e-05, 9.773651159545139, 4.056790416274563, 41.690841366268174, 0, 0]
[0, 1.076505127546421e-05, 9.77363662429834, 4.056788029994212, 41.83369280959238, 0, 0]
[0, 1.076504482648106e-05, 9.773621847684165, 4.056785553641118, 41.976544253561386, 0, 0]
[0, 1.0765037966091331e-05, 9.773607070784593, 4.056783031206441, 42.11939569790445, 0, 0]
[0, 1.0765031183773809e-05, 9.773592516600484, 4.056780504085347, 42.26224714236327, 0, 0]
[0, 1.076502487464256e-05, 9.773578388022344, 4.056778010657192, 42.405098586699644, 0, 0]
[0, 1.0765018433776538e-05, 9.773564866331286, 4.056775585787769, 42.54795003069448, 0, 0]
[0, 1.0765012224238067e-05, 9.773552110075759, 4.056773260561756, 42.69080147414975, 0, 0]
[0, 1.0765003799663693e-05, 9.773540254354225, 4.05677106222087, 42.83365291689134, 0, 0]
[0, 1.076500216695123e-05, 9.773529410503375, 4.056769014173724, 42.976504358771926, 0, 0]
[0, 1.0764996558178302e-05, 9.773519666303905, 4.056767135513679, 43.11935579966331, 0, 0]
[0, 1.0764991113032906e-05, 9.773511086299381, 4.056765441583744, 43.262207239466, 0, 0]
[0, 1.0764987587871898e-05, 9.773503712664915, 4.056763943567267, 43.40505867810346, 0, 0]
[0, 1.0764981646414907e-05, 9.77349756620698, 4.0567626488675765, 43.54791011552211, 0, 0]
[0, 1.076498104031789e-05, 9.773492647615459, 4.05676156137399, 43.690761551691345, 0, 0]
[0, 1.0764977694351887e-05, 9.773488939039202, 4.056760681396685, 43.8336129866016, 0, 0]
[0, 1.0764978944323913e-05, 9.773486405680801, 4.056760006187758, 43.97646442026243, 0, 0]
[0, 1.076497511055636e-05, 9.77348499760658, 4.056759530162468, 44.119315852702556, 0, 0]
[0, 1.0764974873824869e-05, 9.773484651672428, 4.056759245053993, 44.262167283966924, 0, 0]
[0, 1.0764974522828646e-05, 9.773485293418, 4.05675914043441, 44.405018714112934, 0, 0]
[0, 1.0764974599207023e-05, 9.7734868390645, 4.056759203962093, 44.5478701432133, 0, 0]
[0, 1.0764975326410866e-05, 9.773489197508662, 4.056759421571986, 44.690721571347424, 0, 0]
[0, 1.0764975214685082e-05, 9.773492272188077, 4.0567597780673585, 44.83357299860715, 0, 0]
[0, 1.076497723745042e-05, 9.773495962984285, 4.056760257288557, 44.97642442508719, 0, 0]
[0, 1.0764982468044159e-05, 9.773500167993044, 4.056760842454444, 45.11927585088894, 0, 0]
[0, 1.0764980864964614e-05, 9.77350478519703, 4.056761516510218, 45.26212727611477, 0, 0]
[0, 1.0764981773593818e-05, 9.773509714025192, 4.056762262294137, 45.404978700868966, 0, 0]
[0, 1.0764985124173948e-05, 9.773514856741217, 4.056763062937371, 45.54783012525388, 0, 0]
[0, 1.0764987055957765e-05, 9.773520119756409, 4.056763901884619, 45.69068154937093, 0, 0]
[0, 1.076498931341647e-05, 9.773525414634832, 4.056764763516594, 45.83353297331769, 0, 0]
[0, 1.0764991517603694e-05, 9.773530659160377, 4.056765632805855, 45.97638439718504, 0, 0]
[0, 1.0764994383145018e-05, 9.773535778021811, 4.056766495909387, 46.11923582106102, 0, 0]
[0, 1.0764996314172347e-05, 9.773540703469052, 4.056767340067625, 46.262087245024034, 0, 0]
[0, 1.0764998828464807e-05, 9.773545375748904, 4.056768153885063, 46.40493866914683, 0, 0]
[0, 1.0765000573442916e-05, 9.773549743456266, 4.056768927093224, 46.547790093494434, 0, 0]
[0, 1.0765002533610348e-05, 9.77355376361687, 4.056769650992355, 46.690641518121396, 0, 0]
[0, 1.0765004079180322e-05, 9.773557401765771, 4.056770318124598, 46.833492943077445, 0, 0]
[0, 1.076500615855403e-05, 9.77356063173594, 4.056770922702878, 46.9763443683999, 0, 0]
[0, 1.0765007421216618e-05, 9.773563435582295, 4.0567714599729605, 47.11919579412034, 0, 0]
[0, 1.0765008424482221e-05, 9.773565803049237, 4.056771926918323, 47.262047220260754, 0, 0]
[0, 1.0765009384341463e-05, 9.77356773131004, 4.056772321539526, 47.4048986468355, 0, 0]
[0, 1.0765010606571561e-05, 9.773569224353702, 4.056772643207844, 47.54775007385032, 0, 0]
[0, 1.0765008088251463e-05, 9.773570292447705, 4.056772892408024, 47.690601501306155, 0, 0]
[0, 1.0765014763943526e-05, 9.773570951506585, 4.056773070677554, 47.833452929195374, 0, 0]
[0, 1.0765015265342871e-05, 9.773571222427648, 4.0567731805067995, 47.976304357505526, 0, 0]
[0, 1.0765012828501963e-05, 9.773571130411446, 4.056773225160843, 48.11915578621653, 0, 0]
[0, 1.076501273727057e-05, 9.773570704197695, 4.056773208841798, 48.26200721530733, 0, 0]
[0, 1.0765011726037497e-05, 9.77356997547948, 4.056773136072001, 48.40485864474923, 0, 0]
[0, 1.0765010501741947e-05, 9.773568978095538, 4.05677301204834, 48.54771007451257, 0, 0]
[0, 1.0765008253192759e-05, 9.773567747381282, 4.056772842413491, 48.690561504565785, 0, 0]
[0, 1.076500680019006e-05, 9.77356631958005, 4.05677263288308, 48.83341293487252, 0, 0]
[0, 1.07650135890406e-05, 9.773564731180693, 4.056772389392381, 48.97626436539738, 0, 0]
[0, 1.0765009178799784e-05, 9.77356301833941, 4.0567721179666165, 49.11911579610496, 0, 0]
[0, 1.0765008460499165e-05, 9.773561216360907, 4.056771824642413, 49.26196722695795, 0, 0]
[0, 1.0765007380936468e-05, 9.773559359245489, 4.056771515312945, 49.40481865792192, 0, 0]
[0, 1.0765006698053675e-05, 9.773557479283221, 4.05677119561663, 49.54767008896003, 0, 0]
[0, 1.0765008137076246e-05, 9.773555606688653, 4.056770870868444, 49.69052152003928, 0, 0]
[0, 1.0765003522236728e-05, 9.77355376925883, 4.056770546208625, 49.83337295113145, 0, 0]
[0, 1.0765003148702408e-05, 9.773551992201751, 4.056770226219623, 49.97622438220257, 0, 0]
[0, 1.0765005962122437e-05, 9.773550297882291, 4.056769915231823, 50.11907581323159, 0, 0]
[0, 1.076500038646185e-05, 9.77354870575795, 4.056769616999606, 50.26192724418981, 0, 0]
[0, 1.0765002656035418e-05, 9.773547232268351, 4.056769334848241, 50.40477867505621, 0, 0]
[0, 1.0765000248377002e-05, 9.773545890838777, 4.056769071542556, 50.54763010581736, 0, 0]
[0, 1.076500248377966e-05, 9.773544691862536, 4.0567688294654, 50.69048153645414, 0, 0]
[0, 1.076499771334686e-05, 9.773543642816913, 4.056768610416749, 50.83333296695508, 0, 0]
[0, 1.0765001312641655e-05, 9.773542748356103, 4.0567684157075785, 50.976184397310604, 0, 0]
[0, 1.0764998579088614e-05, 9.773542010421794, 4.056768246297289, 51.11903582751498, 0, 0]
[0, 1.0764998287327102e-05, 9.773541428465062, 4.056768102591201, 51.261887257566286, 0, 0]
[0, 1.0764995364496288e-05, 9.77354099964085, 4.056767984527218, 51.404738687460686, 0, 0]
[0, 1.0765000678462836e-05, 9.773540718973381, 4.056767891768105, 51.54759011720203, 0, 0]
[0, 1.0764998775871459e-05, 9.773540579630355, 4.05676782360365, 51.69044154679221, 0, 0]
[0, 1.076499524898145e-05, 9.773540573181325, 4.056767778921364, 51.83329297623698, 0, 0]
[0, 1.0764996784181214e-05, 9.773540689782104, 4.056767756493672, 51.97614440554591, 0, 0]
[0, 1.0764999602514778e-05, 9.773540918499457, 4.0567677547388685, 52.11899583472663, 0, 0]
[0, 1.0764998752625097e-05, 9.773541247539303, 4.056767771861527, 52.26184726378682, 0, 0]
[0, 1.076499946055266e-05, 9.773541664436026, 4.056767806073864, 52.40469869274177, 0, 0]
[0, 1.0764998536235755e-05, 9.773542156382664, 4.056767855279007, 52.547550121599144, 0, 0]
[0, 1.0764995741309723e-05, 9.77354271039831, 4.056767917356157, 52.69040155037615, 0, 0]
[0, 1.0764997550261767e-05, 9.773543313503348, 4.056767990284701, 52.833252979080456, 0, 0]
[0, 1.0764997749287816e-05, 9.773543952987037, 4.056768071897623, 52.976104407729274, 0, 0]
[0, 1.0765001081662442e-05, 9.773544616546857, 4.056768160080528, 53.11895583633409, 0, 0]
[0, 1.0764997367290345e-05, 9.773545292437586, 4.056768252781891, 53.261807264906366, 0, 0]
[0, 1.0765001993346022e-05, 9.773545969595192, 4.056768348110205, 53.4046586934576, 0, 0]
[0, 1.0765001950875038e-05, 9.773546637789817, 4.056768444211317, 53.547510122001185, 0, 0]
[0, 1.0764995123551737e-05, 9.77354728769243, 4.056768539368457, 53.69036155054668, 0, 0]
[0, 1.0764998674574109e-05, 9.773547910967109, 4.0567686319548155, 53.833212979103656, 0, 0]
[0, 1.0765001024492602e-05, 9.77354850028029, 4.056768720603664, 53.97606440768168, 0, 0]
[0, 1.0765000028529172e-05, 9.77354904937791, 4.056768804082342, 54.1189158362884, 0, 0]
[0, 1.0765000334609806e-05, 9.77354955307604, 4.05676888133734, 54.26176726493148, 0, 0]
[0, 1.076500050130577e-05, 9.773550007281157, 4.056768951450204, 54.40461869361474, 0, 0]
[0, 1.0764999962977953e-05, 9.773550408975987, 4.056769013585406, 54.54747012234392, 0, 0]
[0, 1.0765001541162256e-05, 9.773550756102656, 4.056769067342821, 54.690321551122835, 0, 0]
[0, 1.0765000915992957e-05, 9.773551047627599, 4.05676911229267, 54.833172979955336, 0, 0]
[0, 1.0765001575152195e-05, 9.773551283437765, 4.056769148173466, 54.976024408841404, 0, 0]
[0, 1.0765001302923745e-05, 9.773551464244044, 4.056769174949358, 55.118875837782966, 0, 0]
[0, 1.0765000838775663e-05, 9.773551591557819, 4.056769192677206, 55.2617272667781, 0, 0]
[0, 1.076500171985489e-05, 9.77355166756657, 4.056769201585256, 55.40457869582872, 0, 0]
[0, 1.0765002386073943e-05, 9.773551695078144, 4.056769201988592, 55.547430124931, 0, 0]
[0, 1.0764999223405731e-05, 9.773551677420256, 4.056769194305213, 55.69028155408303, 0, 0]
[0, 1.076500299548033e-05, 9.773551618351403, 4.056769179054439, 55.833132983282894, 0, 0]
[0, 1.0764999080398336e-05, 9.77355152197264, 4.056769156825351, 55.975984412524845, 0, 0]
[0, 1.0765000263391184e-05, 9.773551392623668, 4.056769128324027, 56.11883584180698, 0, 0]
[0, 1.0765000399890834e-05, 9.773551234870041, 4.056769094090014, 56.26168727112547, 0, 0]
[0, 1.0765000736360679e-05, 9.77355105330334, 4.056769054936067, 56.40453870047457, 0, 0]
[0, 1.0765000288027998e-05, 9.773550852524743, 4.056769011703309, 56.54739012985046, 0, 0]
[0, 1.07650011706308e-05, 9.773550637132828, 4.056768965008757, 56.69024155924931, 0, 0]
[0, 1.0764999129908508e-05, 9.77355041154953, 4.056768915699036, 56.833092988665385, 0, 0]
[0, 1.0764993739784194e-05, 9.773550180054709, 4.05676886442667, 56.97594441809675, 0, 0]
[0, 1.0765011416705774e-05, 9.773549946664366, 4.056768811951287, 57.118795847533875, 0, 0]
[0, 1.0764998941126668e-05, 9.77354971513992, 4.056768758929776, 57.26164727697864, 0, 0]
[0, 1.0764995833813505e-05, 9.773549488912382, 4.056768706023974, 57.4044987064215, 0, 0]
[0, 1.0764998118968997e-05, 9.77354927110848, 4.056768653739715, 57.547350135864356, 0, 0]
[0, 1.0765001826567913e-05, 9.773549064468142, 4.056768602602936, 57.69020156529957, 0, 0]
[0, 1.0765000530762543e-05, 9.773548871347026, 4.056768553137765, 57.83305299472519, 0, 0]
[0, 1.076499997926439e-05, 9.773548693722827, 4.056768505775665, 57.97590442414127, 0, 0]
[0, 1.0764999364470473e-05, 9.773548533201298, 4.056768460842021, 58.118755853542034, 0, 0]
[0, 1.0764996505626482e-05, 9.773548391026276, 4.056768418546801, 58.26160728292749, 0, 0]
[0, 1.0764996959692304e-05, 9.773548268027103, 4.0567683791972335, 58.40445871229572, 0, 0]
[0, 1.0765000083253945e-05, 9.773548164718228, 4.056768342897193, 58.54731014164673, 0, 0]
[0, 1.076500245819135e-05, 9.773548081246402, 4.056768309812738, 58.690161570976706, 0, 0]
[0, 1.0765000726932526e-05, 9.773548017477266, 4.056768279949085, 58.833013000289455, 0, 0]
[0, 1.0764989244312292e-05, 9.773547972979216, 4.056768253272828, 58.97586442958116, 0, 0]
[0, 1.0765011627920077e-05, 9.773547947041992, 4.056768229824644, 59.11871585885372, 0, 0]
[0, 1.0765000610699404e-05, 9.773547938755055, 4.056768209446066, 59.26156728810716, 0, 0]
[0, 1.0764983747626338e-05, 9.773547947011009, 4.056768191977478, 59.404418717343376, 0, 0]
[0, 1.0765003206696518e-05, 9.773547970512785, 4.056768177288892, 59.54727014656237, 0, 0]
[0, 1.0764994696811755e-05, 9.773548007837253, 4.056768165220337, 59.6901215757651, 0, 0]
[0, 1.0765004689048382e-05, 9.773548057488803, 4.056768155441877, 59.83297300495253, 0, 0]
[0, 1.0765001833453244e-05, 9.773548117864033, 4.056768147783299, 59.97582443412752, 0, 0]
[0, 1.0764999576197515e-05, 9.773548187330041, 4.056768141981439, 60.118675863291024, 0, 0]
[0, 1.0764998839538834e-05, 9.7735482642267, 4.056768137818732, 60.26152729244305, 0, 0]
[0, 1.076499870030901e-05, 9.773548346950617, 4.056768134923172, 60.40437872158742, 0, 0]
[0, 1.0764995986948817e-05, 9.77354843389429, 4.056768133046597, 60.54723015072414, 0, 0]
[0, 1.0764997224034017e-05, 9.773548523499473, 4.0567681319926345, 60.69008157985512, 0, 0]
[0, 1.0765000656386195e-05, 9.77354861429501, 4.0567681315131905, 60.83293300898419, 0, 0]
[0, 1.076499991382148e-05, 9.773548704909127, 4.056768131371659, 60.97578443810943, 0, 0]
[0, 1.0764996650123391e-05, 9.773548794110212, 4.056768131198479, 61.118635867232754, 0, 0]
[0, 1.0764996946500384e-05, 9.77354888069177, 4.05676813099902, 61.261487296358005, 0, 0]
[0, 1.0765000686356013e-05, 9.773548963693093, 4.056768130312525, 61.40433872548516, 0, 0]
[0, 1.076499954588176e-05, 9.773549042195967, 4.056768129081101, 61.54719015461422, 0, 0]
[0, 1.0764996482840913e-05, 9.773549115396506, 4.056768127320324, 61.690041583749036, 0, 0]
[0, 1.0764997245388704e-05, 9.773549182742737, 4.056768124627553, 61.832893012885755, 0, 0]
[0, 1.07649980899566e-05, 9.773549243693758, 4.056768121127556, 61.97574444202821, 0, 0]
[0, 1.0764998499611112e-05, 9.773549297927037, 4.05676811659661, 62.11859587117833, 0, 0]
[0, 1.0764999455204378e-05, 9.773549345233777, 4.056768110918543, 62.261447300332264, 0, 0]
[0, 1.0765001237037705e-05, 9.773549385502324, 4.056768104083227, 62.40429872949577, 0, 0]
[0, 1.0764995885964732e-05, 9.773549418689111, 4.056768096278736, 62.547150158665026, 0, 0]
[0, 1.076499713207077e-05, 9.773549444987923, 4.056768087191102, 62.690001587840015, 0, 0]
[0, 1.0764985785019727e-05, 9.773549464565894, 4.0567680770258105, 62.83285301702265, 0, 0]
[0, 1.0765009496429575e-05, 9.773549477723234, 4.05676806579146, 62.975704446211985, 0, 0]
[0, 1.0765001553679548e-05, 9.773549484879554, 4.056768053369811, 63.11855587540707, 0, 0]
[0, 1.0764998226287209e-05, 9.773549486412334, 4.056768039989558, 63.261407304610756, 0, 0]
[0, 1.0764998276056542e-05, 9.773549482829184, 4.056768025692992, 63.40425873381827, 0, 0]
[0, 1.0764998399038128e-05, 9.77354947465138, 4.056768010547904, 63.547110163031526, 0, 0]
[0, 1.0764998211935557e-05, 9.77354946247565, 4.056767994485882, 63.68996159225052, 0, 0]
[0, 1.0764998079161293e-05, 9.773549446803937, 4.056767977906005, 63.83281302147334, 0, 0]
[0, 1.0764997942783903e-05, 9.773549428317583, 4.056767960485387, 63.97566445069999, 0, 0]
[0, 1.0764998424132476e-05, 9.773549407495235, 4.056767942768656, 64.11851587993046, 0, 0]
[0, 1.0764998023696694e-05, 9.77354938497601, 4.056767924567563, 64.26136730916285, 0, 0]
[0, 1.0764997751193657e-05, 9.773549361287214, 4.056767906093797, 64.40421873839907, 0, 0]
[0, 1.0764997947765273e-05, 9.773549336992382, 4.056767887354326, 64.54707016763528, 0, 0]
[0, 1.0764998146209653e-05, 9.773549312592731, 4.05676786839864, 64.6899215968715, 0, 0]
[0, 1.0764997319526321e-05, 9.773549288503057, 4.056767849515914, 64.83277302611154, 0, 0]
[0, 1.076499760674492e-05, 9.773549265199623, 4.056767830596978, 64.97562445534776, 0, 0]
[0, 1.0764997677644652e-05, 9.77354924306053, 4.056767811720351, 65.11847588458588, 0, 0]
[0, 1.0764997374680997e-05, 9.773549222402758, 4.056767793030591, 65.26132731382401, 0, 0]
[0, 1.0764997022955355e-05, 9.773549203502956, 4.056767774617212, 65.40417874306021, 0, 0]
[0, 1.0764996544285413e-05, 9.773549186625678, 4.056767756434168, 65.54703017229453, 0, 0]
[0, 1.0764997250398307e-05, 9.773549171960621, 4.0567677385297864, 65.68988160152692, 0, 0]
[0, 1.0764996844496013e-05, 9.773549159650099, 4.056767720939298, 65.83273303075738, 0, 0]
[0, 1.076499721377072e-05, 9.773549149744145, 4.0567677038805385, 65.97558445998595, 0, 0]
[0, 1.0764996541457246e-05, 9.773549142333291, 4.056767687217907, 66.11843588921069, 0, 0]
[0, 1.0764998136442516e-05, 9.77354913748226, 4.056767670754821, 66.2612873184335, 0, 0]
[0, 1.0764999531719505e-05, 9.773549135083396, 4.056767654815129, 66.40413874765633, 0, 0]
[0, 1.076499743757247e-05, 9.773549135093191, 4.056767639316183, 66.54699017687341, 0, 0]
[0, 1.076499730492189e-05, 9.77354913744339, 4.056767624127245, 66.68984160609048, 0, 0]
[0, 1.076499840532126e-05, 9.773549141981587, 4.056767609388418, 66.83269303530375, 0, 0]
[0, 1.0764996253306843e-05, 9.773549148576507, 4.056767594995769, 66.9755444645151, 0, 0]
[0, 1.0764996790483181e-05, 9.7735491570396, 4.056767581021007, 67.11839589372451, 0, 0]
[0, 1.0764996669909847e-05, 9.773549167208687, 4.056767567356651, 67.26124732293204, 0, 0]
[0, 1.0764996596386766e-05, 9.773549178918193, 4.056767553865752, 67.40409875213763, 0, 0]
[0, 1.076499633745178e-05, 9.773549191918773, 4.056767540698192, 67.54695018134132, 0, 0]
[0, 1.0764997194843708e-05, 9.773549206026017, 4.056767527739631, 67.6898016105431, 0, 0]
[0, 1.0764997191519516e-05, 9.773549220997719, 4.056767515072732, 67.83265303974487, 0, 0]
[0, 1.0764996563448255e-05, 9.773549236672732, 4.056767502503807, 67.97550446894473, 0, 0]
[0, 1.0764996789060618e-05, 9.773549252846184, 4.056767490025063, 68.1183558981446, 0, 0]
[0, 1.076499681553149e-05, 9.773549269305116, 4.056767477644486, 68.26120732734255, 0, 0]
[0, 1.0764994721541982e-05, 9.773549285858273, 4.0567674654156765, 68.4040587565405, 0, 0]
[0, 1.0764997835139119e-05, 9.77354930237727, 4.056767453098969, 68.54691018573843, 0, 0]
[0, 1.0764997194741075e-05, 9.773549318666214, 4.0567674408442675, 68.68976161493637, 0, 0]
[0, 1.0764997231148682e-05, 9.773549334576858, 4.056767428626538, 68.83261304413433, 0, 0]
[0, 1.0764996796914149e-05, 9.77354935002863, 4.056767416278344, 68.97546447333228, 0, 0]
[0, 1.0764996606082576e-05, 9.773549364875288, 4.056767403901549, 69.11831590253215, 0, 0]
[0, 1.0764996464698511e-05, 9.773549379050255, 4.056767391382986, 69.26116733173009, 0, 0]
[0, 1.0764995871401471e-05, 9.773549392462341, 4.056767378777258, 69.40401876092996, 0, 0]
[0, 1.0764995569636952e-05, 9.773549405044523, 4.0567673661036405, 69.54687019012981, 0, 0]
[0, 1.0764996012331262e-05, 9.773549416781526, 4.056767353243296, 69.68972161933159, 0, 0]
[0, 1.0764995862190426e-05, 9.773549427647453, 4.056767340209094, 69.83257304853336, 0, 0]
[0, 1.0764996351594345e-05, 9.773549437585118, 4.056767327186675, 69.97542447773515, 0, 0]
[0, 1.076499600776836e-05, 9.773549446666092, 4.056767313890308, 70.11827590693977, 0, 0]
[0, 1.0764994840719016e-05, 9.773549454882, 4.056767300428606, 70.26112733614252, 0, 0]
[0, 1.0764995942158671e-05, 9.77354946223237, 4.0567672869425975, 70.40397876535003, 0, 0]
[0, 1.0764996118203197e-05, 9.77354946880231, 4.0567672732258675, 70.54683019455372, 0, 0]
[0, 1.0764996057407773e-05, 9.773549474633928, 4.056767259323455, 70.68968162376123, 0, 0]
[0, 1.076499643707497e-05, 9.77354947974885, 4.05676724539599, 70.83253305296874, 0, 0]
[0, 1.076499614025259e-05, 9.773549484236593, 4.056767231322527, 70.97538448218009, 0, 0]
[0, 1.076499608429975e-05, 9.773549488148435, 4.056767217190218, 71.1182359113876, 0, 0]
[0, 1.0765001793523156e-05, 9.773549491592828, 4.056767202867715, 71.26108734059893, 0, 0]
[0, 1.0764992877219649e-05, 9.77354949460097, 4.056767188521956, 71.40393876980644, 0, 0]
[0, 1.0764995875303833e-05, 9.773549497270611, 4.056767174090402, 71.54679019901779, 0, 0]
[0, 1.0764998308740088e-05, 9.773549499654521, 4.056767159616469, 71.68964162822914, 0, 0]
[0, 1.076500543672659e-05, 9.773549501854575, 4.056767145060247, 71.83249305744049, 0, 0]
[0, 1.0764987033225408e-05, 9.773549503925919, 4.056767130456077, 71.97534448665374, 0, 0]
[0, 1.0764991073590983e-05, 9.773549505924075, 4.056767115848643, 72.11819591586699, 0, 0]
[0, 1.0764994527955736e-05, 9.773549507922098, 4.056767101231641, 72.26104734507832, 0, 0]
[0, 1.0764994853923467e-05, 9.773549509992314, 4.056767086545788, 72.40389877428967, 0, 0]
[0, 1.076499973691348e-05, 9.773549512146952, 4.056767071962889, 72.54675020350102, 0, 0]
[0, 1.0764996862381889e-05, 9.773549514472798, 4.056767057316766, 72.68960163271618, 0, 0]
[0, 1.0764996224801052e-05, 9.773549516986941, 4.056767042740757, 72.83245306192752, 0, 0]
[0, 1.0764995557211394e-05, 9.7735495197425, 4.056767028153484, 72.97530449113886, 0, 0]
[0, 1.0764995121893886e-05, 9.773549522746766, 4.056767013648211, 73.1181559203502, 0, 0]
[0, 1.0764994970947198e-05, 9.773549526025885, 4.056766999219857, 73.26100734956155, 0, 0]
[0, 1.0764994271022911e-05, 9.773549529629813, 4.056766984720235, 73.40385877877289, 0, 0]
[0, 1.0764995374821263e-05, 9.773549533557446, 4.056766970240024, 73.54671020798423, 0, 0]
[0, 1.0764995495949687e-05, 9.773549537774686, 4.0567669558922335, 73.68956163719557, 0, 0]
[0, 1.0764995358930241e-05, 9.773549542291592, 4.056766941667228, 73.83241306640308, 0, 0]
[0, 1.0764994905320225e-05, 9.773549547142231, 4.056766927412622, 73.97526449561443, 0, 0]
[0, 1.0764995471597324e-05, 9.773549552291145, 4.0567669132243305, 74.11811592482194, 0, 0]
[0, 1.076499485131076e-05, 9.773549557726634, 4.056766899101377, 74.26096735403328, 0, 0]
[0, 1.076499521459608e-05, 9.77354956344905, 4.056766884977041, 74.40381878324081, 0, 0]
[0, 1.0764995254433414e-05, 9.773549569433042, 4.056766870870947, 74.54667021245214, 0, 0]
[0, 1.076499522818954e-05, 9.773549575637182, 4.056766856860753, 74.68952164165965, 0, 0]
[0, 1.076499491688937e-05, 9.773549582012219, 4.056766843043527, 74.83237307086716, 0, 0]
[0, 1.0764994974227744e-05, 9.773549588628256, 4.056766829025941, 74.97522450007469, 0, 0]
[0, 1.0764995280409037e-05, 9.773549595404656, 4.056766815067662, 75.1180759292822, 0, 0]
[0, 1.0764994516504204e-05, 9.773549602281836, 4.0567668012306255, 75.26092735848971, 0, 0]
[0, 1.0764995131387103e-05, 9.773549609263593, 4.056766787447969, 75.40377878769722, 0, 0]
[0, 1.0764995161585019e-05, 9.77354961632631, 4.056766773678837, 75.54663021690473, 0, 0]
[0, 1.0764994947232435e-05, 9.773549623460077, 4.056766759861501, 75.68948164611226, 0, 0]
[0, 1.076499454940807e-05, 9.773549630651903, 4.0567667459760886, 75.83233307531977, 0, 0]
[0, 1.0764993623470194e-05, 9.773549637835556, 4.056766732140815, 75.97518450452729, 0, 0]
[0, 1.076499411130031e-05, 9.773549644980717, 4.056766718412422, 76.1180359337348, 0, 0]
[0, 1.0764996722264528e-05, 9.773549652096145, 4.056766704677479, 76.26088736294231, 0, 0]
[0, 1.0764995724604107e-05, 9.773549659196698, 4.056766690814786, 76.40373879214984, 0, 0]
[0, 1.076499550218656e-05, 9.773549666189462, 4.056766677111156, 76.54659022135735, 0, 0]
[0, 1.0764994798862658e-05, 9.77354967314308, 4.056766663238448, 76.68944165056104, 0, 0]
[0, 1.07649946071993e-05, 9.773549679998956, 4.056766649397848, 76.83229307976855, 0, 0]
[0, 1.0764993374998642e-05, 9.773549686768654, 4.056766635500233, 76.97514450897606, 0, 0]
[0, 1.076499382883903e-05, 9.773549693408258, 4.056766621671339, 77.11799593818357, 0, 0]
[0, 1.0764994046414815e-05, 9.773549699924827, 4.056766607890685, 77.2608473673911, 0, 0]
[0, 1.076499337198744e-05, 9.77354970635517, 4.056766593996685, 77.4036987965986, 0, 0]
[0, 1.0764993921711616e-05, 9.773549712671446, 4.056766580079462, 77.54655022580612, 0, 0]
[0, 1.0764997577135334e-05, 9.773549718875708, 4.056766566160536, 77.68940165501746, 0, 0]
[0, 1.0764995773297183e-05, 9.773549724970993, 4.056766552205697, 77.83225308422499, 0, 0]
[0, 1.0764995058282944e-05, 9.773549730945518, 4.056766538303939, 77.9751045134325, 0, 0]
[0, 1.0764991912856011e-05, 9.773549736844556, 4.056766524298234, 78.11795594264001, 0, 0]
[0, 1.0764995722796401e-05, 9.773549742631735, 4.056766510331432, 78.26080737184752, 0, 0]
[0, 1.076499545581414e-05, 9.773549748338588, 4.0567664963377705, 78.40365880105503, 0, 0]
[0, 1.076499153063777e-05, 9.773549753986833, 4.056766482249994, 78.54651023026638, 0, 0]
[0, 1.076499574006674e-05, 9.77354975956131, 4.0567664681735724, 78.68936165947389, 0, 0]
[0, 1.076499364432405e-05, 9.773549765040439, 4.056766454208991, 78.8322130886814, 0, 0]
[0, 1.07649937507718e-05, 9.773549770497253, 4.056766440135708, 78.97506451788891, 0, 0]
[0, 1.0764993893967179e-05, 9.773549775912047, 4.056766426039326, 79.11791594710026, 0, 0]
[0, 1.0764993531990003e-05, 9.773549781278899, 4.056766412011637, 79.26076737630778, 0, 0]
[0, 1.0764994239283858e-05, 9.773549786628521, 4.056766397933375, 79.4036188055153, 0, 0]
[0, 1.0764994002114145e-05, 9.773549791983944, 4.056766383800669, 79.54647023472664, 0, 0]
[0, 1.0764993655785185e-05, 9.773549797296427, 4.05676636978489, 79.68932166393415, 0, 0]
[0, 1.0764992492970874e-05, 9.773549802653003, 4.056766355613438, 79.83217309314358, 0, 0]
[0, 1.0764993319967464e-05, 9.773549807994373, 4.0567663415268544, 79.975024522353, 0, 0]
[0, 1.0764993518696745e-05, 9.773549813352766, 4.056766327437864, 80.11787595156052, 0, 0]
[0, 1.076499323866691e-05, 9.773549818717198, 4.056766313404116, 80.26072738077185, 0, 0]
[0, 1.0764993185875204e-05, 9.773549824114635, 4.056766299342183, 80.40357880997936, 0, 0]
[0, 1.07649934941604e-05, 9.773549829578025, 4.056766285157997, 80.54643023918689, 0, 0]
[0, 1.0764993655893546e-05, 9.7735498350319, 4.056766271137036, 80.68928166839824, 0, 0]
[0, 1.076499374649088e-05, 9.773549840528185, 4.056766257092671, 80.83213309760575, 0, 0]
[0, 1.07649934746602e-05, 9.773549846083025, 4.056766242993894, 80.97498452681326, 0, 0]
[0, 1.0764993048450756e-05, 9.773549851656819, 4.056766228964444, 81.1178359560246, 0, 0]
[0, 1.0764992221822112e-05, 9.77354985728923, 4.056766214862645, 81.26068738523212, 0, 0]
[0, 1.0764993048754493e-05, 9.773549862941298, 4.056766200867638, 81.40353881443963, 0, 0]
[0, 1.0764993239014104e-05, 9.773549868637316, 4.056766186853215, 81.54639024365096, 0, 0]
[0, 1.0764993019547156e-05, 9.773549874388747, 4.056766172765861, 81.68924167285849, 0, 0]
[0, 1.0764995594713043e-05, 9.773549880154992, 4.056766158784299, 81.832093102066, 0, 0]
[0, 1.076499477620495e-05, 9.773549885975081, 4.056766144727686, 81.97494453127352, 0, 0]
[0, 1.0764993977905411e-05, 9.773549891821697, 4.0567661306952445, 82.11779596048486, 0, 0]
[0, 1.0764993087933447e-05, 9.773549897677471, 4.056766116732283, 82.26064738969238, 0, 0]
[0, 1.0764993492641076e-05, 9.77354990358041, 4.056766102709435, 82.40349881889989, 0, 0]
[0, 1.0764993696229495e-05, 9.773549909486619, 4.056766088756306, 82.5463502481074, 0, 0]
[0, 1.0764992805970868e-05, 9.773549915432742, 4.056766074734257, 82.68920167731491, 0, 0]
[0, 1.0764993306628993e-05, 9.773549921391425, 4.056766060735356, 82.83205310652626, 0, 0]
[0, 1.0764992977689017e-05, 9.773549927360593, 4.056766046741403, 82.97490453573377, 0, 0]
[0, 1.076499275565647e-05, 9.773549933352323, 4.056766032679598, 83.11775596494128, 0, 0]
[0, 1.0764992901434435e-05, 9.773549939310954, 4.0567660187984425, 83.26060739414879, 0, 0]
[0, 1.0764993135100353e-05, 9.773549945314649, 4.056766004742921, 83.40345882335824, 0, 0]
[0, 1.0764993158689233e-05, 9.773549951278884, 4.0567659908543545, 83.54631025256766, 0, 0]
[0, 1.0764993969598258e-05, 9.773549957266704, 4.056765976863225, 83.68916168177518, 0, 0]
[0, 1.0764993164497702e-05, 9.773549963263129, 4.05676596280378, 83.83201311098269, 0, 0]
[0, 1.0764992768904964e-05, 9.773549969245517, 4.056765948796895, 83.9748645401902, 0, 0]
[0, 1.0764989550052131e-05, 9.773549975198655, 4.0567659348505485, 84.11771596940154, 0, 0]
[0, 1.0764994081299816e-05, 9.773549981162503, 4.0567659208392675, 84.26056739860906, 0, 0]
[0, 1.0764993611802837e-05, 9.77354998707831, 4.056765906946169, 84.40341882781657, 0, 0]
[0, 1.0764992860003665e-05, 9.773549993024739, 4.056765892897626, 84.54627025702408, 0, 0]
[0, 1.076499261191113e-05, 9.773549998919835, 4.05676587900694, 84.6891216862316, 0, 0]
[0, 1.0764989134725358e-05, 9.773550004827564, 4.05676586500108, 84.83197311543911, 0, 0]
[0, 1.0764995129416583e-05, 9.773550010735487, 4.056765850933891, 84.97482454465046, 0, 0]
[0, 1.0764990518992764e-05, 9.773550016621096, 4.056765836900351, 85.11767597385797, 0, 0]
[0, 1.0764992484527954e-05, 9.773550022472678, 4.05676582294262, 85.2605274030655, 0, 0]
[0, 1.0764994579472988e-05, 9.773550028314284, 4.056765808957872, 85.403378832273, 0, 0]
[0, 1.0764989588830416e-05, 9.773550034145691, 4.056765794965639, 85.54623026148434, 0, 0]
[0, 1.0764991075186347e-05, 9.773550039981982, 4.056765780904934, 85.68908169069185, 0, 0]
[0, 1.076499436082386e-05, 9.773550045800656, 4.056765766862591, 85.83193311989938, 0, 0]
[0, 1.0764993089594245e-05, 9.773550051604822, 4.056765752835088, 85.97478454910689, 0, 0]
[0, 1.0764991215978077e-05, 9.773550057365217, 4.056765738927, 86.11763597831822, 0, 0]
[0, 1.0764991582324812e-05, 9.77355006314603, 4.056765724920422, 86.26048740752574, 0, 0]
[0, 1.0764991872943497e-05, 9.773550068920363, 4.0567657109011055, 86.40333883673327, 0, 0]
[0, 1.076499218695433e-05, 9.773550074704872, 4.056765696826572, 86.54619026594078, 0, 0]
[0, 1.0764991928561386e-05, 9.773550080461737, 4.0567656828315135, 86.68904169515211, 0, 0]
[0, 1.0764991919840496e-05, 9.773550086217059, 4.05676566882133, 86.83189312435962, 0, 0]
[0, 1.0764991750493099e-05, 9.773550091956372, 4.056765654880485, 86.97474455356715, 0, 0]
[0, 1.0764991954546138e-05, 9.773550097734052, 4.056765640770728, 87.11759598277466, 0, 0]
[0, 1.0764991734139762e-05, 9.773550103485928, 4.056765626766139, 87.260447411986, 0, 0]
[0, 1.0764991602025538e-05, 9.773550109254746, 4.056765612678817, 87.4032988411935, 0, 0]
[0, 1.0764990615743991e-05, 9.773550115002404, 4.056765598692132, 87.54615027040103, 0, 0]
[0, 1.0764989856488621e-05, 9.77355012074029, 4.056765584754353, 87.68900169960854, 0, 0]
[0, 1.0764991144925287e-05, 9.773550126505995, 4.056765570712711, 87.83185312881989, 0, 0]
[0, 1.0764991205496646e-05, 9.773550132288836, 4.056765556616865, 87.9747045580274, 0, 0]
[0, 1.0764993716532416e-05, 9.77355013805182, 4.056765542627444, 88.11755598723492, 0, 0]
[0, 1.0764992798214624e-05, 9.773550143821195, 4.056765528613607, 88.26040741644243, 0, 0]
[0, 1.076499225629378e-05, 9.773550149596376, 4.0567655146013015, 88.40325884565377, 0, 0]
[0, 1.0764990670159427e-05, 9.773550155377265, 4.056765500593737, 88.54611027486128, 0, 0]
[0, 1.076499073746806e-05, 9.773550161147805, 4.056765486636269, 88.6889617040688, 0, 0]
[0, 1.0764991298021646e-05, 9.773550166946427, 4.056765472599216, 88.83181313327631, 0, 0]
[0, 1.0764991453715089e-05, 9.773550172747656, 4.056765458572238, 88.97466456248382, 0, 0]
[0, 1.07649913310907e-05, 9.773550178568474, 4.056765444493661, 89.11751599169517, 0, 0]
[0, 1.0764991375563692e-05, 9.77355018438497, 4.056765430428636, 89.2603674209027, 0, 0]
[0, 1.0764991038303517e-05, 9.773550190184832, 4.056765416460198, 89.4032188501102, 0, 0]
[0, 1.0764991187784578e-05, 9.773550195993279, 4.056765402471695, 89.54607027932154, 0, 0]
[0, 1.0764991426671827e-05, 9.77355020179254, 4.056765388537231, 89.68892170852905, 0, 0]
[0, 1.076499130980317e-05, 9.773550207624261, 4.056765374502982, 89.83177313773658, 0, 0]
[0, 7.001850666141221e-06, 10.166801754978719, 2.63863343581921, 89.97462456694409, 0, 0]
[0, 3.8051674419298706e-06, 10.443914719651547, 1.433969692856386, 89.98262682727821, 0, 0]
[0, 1.6156893049703756e-06, 10.593245079117317, 0.6088693752869415, 89.98888128568034, 0, 0]
[0, 3.84999950521801e-07, 10.626385283154006, 0.14508646725313007, 89.99320113559949, 0, 0]
[0, -1.3401852672061548e-07, 10.575227443854068, -0.05050464759724839, 89.99566567503949, 0, 0]
[0, -2.225789494021102e-07, 10.474089113581615, -0.08387735964186861, 89.99674320419508, 0, 0]
[0, -1.114998494960141e-07, 10.350704999632471, -0.042020131873644215, 89.99697504945063, 0, 0]
[0, 4.6099789488557697e-08, 10.223574512953064, 0.017372088025832434, 89.99680883111405, 0, 0]
[0, 1.6928621668381085e-07, 10.102871671267238, 0.06379632284581754, 89.99654321045301, 0, 0]
[0, 2.2975058868559328e-07, 9.992787940389292, 0.08658071304382293, 89.99633728763888, 0, 0]
[0, 2.3036696571125726e-07, 9.893987776031977, 0.08681301189171237, 89.99624775094996, 0, 0]
[0, 1.879602422476319e-07, 9.805540047998711, 0.07083230782892952, 89.9962701740244, 0, 0]
[0, 1.2198419452238042e-07, 9.726153788399955, 0.04597041595317121, 89.9963725541138, 0, 0]
[0, 4.8647765010531976e-08, 9.654802212967237, 0.018333316803697052, 89.99651739479565, 0, 0]
[0, -2.1114154838826167e-08, 9.590917583106588, -0.00795249648336313, 89.99667330580377, 0, 0]
[0, -8.128707123769204e-08, 9.534342360579425, -0.03063811808353086, 89.99681902608296, 0, 0]
[0, -1.2969474614410064e-07, 9.485179978545576, -0.048877064672776416, 89.99694298977239, 0, 0]
[0, -1.663447867822229e-07, 9.443635455648188, -0.06268732773604477, 89.99704092236894, 0, 0]
[0, -1.9241127738026976e-07, 9.409890339332934, -0.07250892872772066, 89.99711307909813, 0, 0]
[0, -2.093897446255276e-07, 9.384024840577231, -0.07890783339915017, 89.9971619551437, 0, 0]
[0, -2.1869732069829358e-07, 9.365982332507732, -0.08241552355537746, 89.99719074133354, 0, 0]
[0, -2.214889740863197e-07, 9.355564279127005, -0.08346758879229871, 89.99720247788814, 0, 0]
[0, -2.1865895041455182e-07, 9.352443113535404, -0.08240130475651286, 89.99719972144416, 0, 0]
[0, -2.1090728609789449e-07, 9.356183197624475, -0.07947997046950536, 89.99718452048718, 0, 0]
[0, -1.9881471588426033e-07, 9.366263459844191, -0.07492292913133564, 89.99715853287326, 0, 0]
[0, -1.8291226447896134e-07, 9.382098359321578, -0.06893028854375849, 89.99712317587777, 0, 0]
[0, -1.637228737128483e-07, 9.403055972515789, -0.061698584350144456, 89.99707975111028, 0, 0]
[0, -1.4177560488847062e-07, 9.428473232949273, -0.053427852355219504, 89.9970295239874, 0, 0]
[0, -1.1761336298069115e-07, 9.457668881148154, -0.044322416494160494, 89.99697375952397, 0, 0]
[0, -9.178261155583914e-08, 9.489954762305633, -0.03458800597261922, 89.99691372594546, 0, 0]
[0, -6.482024464097832e-08, 9.524645971713932, -0.0244273486541825, 89.9968506794423, 0, 0]
[0, -3.7243609148009317e-08, 9.56107014439681, -0.014035664589791323, 89.99678584102232, 0, 0]
[0, -9.543805266204314e-09, 9.59857600647952, -0.003596819278533045, 89.9967203728616, 0, 0]
[0, 1.783234462644e-08, 9.636541181825619, 0.006719595846501055, 89.99665535813027, 0, 0]
[0, 4.447535171627413e-08, 9.674379186562039, 0.016760271731907864, 89.99659178568561, 0, 0]
[0, 7.002559905739208e-08, 9.711545526046967, 0.026389432628944595, 89.99653053963667, 0, 0]
[0, 9.417110575044648e-08, 9.747542823535415, 0.03548950469357344, 89.9964723930034, 0, 0]
[0, 1.1665711134087428e-07, 9.781924935427133, 0.043961356835926536, 89.99641800460563, 0, 0]
[0, 1.372552360042849e-07, 9.81430003919432, 0.051724219765171, 89.99636791837798, 0, 0]
[0, 1.5580646212529912e-07, 9.844332707154281, 0.058715350728572584, 89.99632256460215, 0, 0]
[0, 1.72189908183657e-07, 9.871745001297846, 0.06488948089423888, 89.9962822626812, 0, 0]
[0, 1.8633014673503396e-07, 9.896316641112838, 0.07021806626149592, 89.99624722524187, 0, 0]
[0, 1.9818834989064413e-07, 9.917884308228412, 0.07468835622356342, 89.99621756349183, 0, 0]
[0, 2.0778300772284267e-07, 9.936340159442967, 0.07830229652773611, 89.99619329363716, 0, 0]
[0, 2.1514116729440563e-07, 9.951629625550272, 0.08107528698933691, 89.99617434434818, 0, 0]
[0, 2.2034022077162375e-07, 9.963748577764276, 0.08303481722141969, 89.99616056502899, 0, 0]
[0, 2.2348231120401107e-07, 9.972739945167461, 0.08421901152855366, 89.99615173482547, 0, 0]
[0, 2.2469251689041695e-07, 9.97868986930859, 0.08467511222656252, 89.99614757206197, 0, 0]
[0, 2.2411687375101944e-07, 9.981723482058612, 0.08445793411226893, 89.99614774402235, 0, 0]
[0, 2.2191419640575883e-07, 9.982000392787516, 0.08362831989779514, 89.9961518767692, 0, 0]
[0, 2.182616542239931e-07, 9.979709969536842, 0.08225162638588214, 89.99615956490973, 0, 0]
[0, 2.1333827036384578e-07, 9.975066496873414, 0.08039626541908262, 89.9961703809978, 0, 0]
[0, 2.073312629653999e-07, 9.968304289388605, 0.07813232285996989, 89.9961838845689, 0, 0]
[0, 2.004263254528728e-07, 9.959672835973834, 0.07553027360612585, 89.99619963054349, 0, 0]
[0, 1.9280844675462067e-07, 9.949432045042984, 0.07265980639404977, 89.9962171769761, 0, 0]
[0, 1.8465968400418287e-07, 9.937847654592169, 0.06958877040465081, 89.99623609200465, 0, 0]
[0, 1.7615377205140105e-07, 9.925186865424624, 0.06638224880333249, 89.99625596002284, 0, 0]
[0, 1.6744739699577194e-07, 9.911714247694169, 0.06310176573781358, 89.99627638695334, 0, 0]
[0, 1.5869458121771327e-07, 9.897687964972661, 0.05980462494222191, 89.99629700469072, 0, 0]
[0, 1.5004217998231674e-07, 9.883356351438257, 0.056543379631588314, 89.99631747465247, 0, 0]
[0, 1.416096234746427e-07, 9.868954870563252, 0.05336542926210648, 89.99633749053046, 0, 0]
[0, 1.335087594209544e-07, 9.854703475896528, 0.05031273730907479, 89.99635678022345, 0, 0]
[0, 1.2584033145921717e-07, 9.840804387184878, 0.04742166147375269, 89.99637510703862, 0, 0]
[0, 1.1868874009486697e-07, 9.82744028739038, 0.044722889965360196, 89.99639227018906, 0, 0]
[0, 1.1208710115241548e-07, 9.814772939886337, 0.04224147164147891, 89.99640810469435, 0, 0]
[0, 1.0613400056155509e-07, 9.802942217940828, 0.03999693232210162, 89.99642248068008, 0, 0]
[0, 1.0084701759955026e-07, 9.79206553349497, 0.03800346528859838, 89.99643530224542, 0, 0]
[0, 9.624484697680157e-08, 9.782237646134465, 0.03627018699469114, 89.99644650585181, 0, 0]
[0, 9.234650136906658e-08, 9.773530829285178, 0.03480144638112598, 89.99645605839834, 0, 0]
[0, 8.915091527111848e-08, 9.765995365881993, 0.033597179707453684, 89.9964639550021, 0, 0]
[0, 8.664829867142633e-08, 9.759660343603512, 0.03265329856778319, 89.99647021653776, 0, 0]
[0, 8.481365577907118e-08, 9.754534715783857, 0.031962105533547586, 89.99647488703914, 0, 0]
[0, 8.362159916713598e-08, 9.750608593863, 0.0315127254482389, 89.99647803097082, 0, 0]
[0, 8.303724347852601e-08, 9.74785473471425, 0.03129154725840769, 89.99647973043844, 0, 0]
[0, 8.30084986870118e-08, 9.746230186773463, 0.031282666717952344, 89.99648008241822, 0, 0]
[0, 8.350308716984183e-08, 9.745678058244959, 0.0314683250017367, 89.99647919594044, 0, 0]
[0, 8.446086942680613e-08, 9.746129371728127, 0.031829336575549025, 89.99647718944145, 0, 0]
[0, 8.583161717778218e-08, 9.747504970726764, 0.032345501285987864, 89.99647418813849, 0, 0]
[0, 8.755819685427524e-08, 9.749717445377444, 0.03299599505051026, 89.99647032154238, 0, 0]
[0, 8.958446946792878e-08, 9.752673046248558, 0.03375973671837264, 89.99646572116143, 0, 0]
[0, 9.185796171255352e-08, 9.756273557790234, 0.034615727560770394, 89.99646051834326, 0, 0]
[0, 9.43172937835987e-08, 9.760418106165044, 0.03554335899762526, 89.99645484231549, 0, 0]
[0, 9.691496457247295e-08, 9.765004877959989, 0.03652268877172033, 89.99644881841783, 0, 0]
[0, 9.959861109471481e-08, 9.76993272995626, 0.03753468391334472, 89.99644256657137, 0, 0]
[0, 1.023274728393263e-07, 9.775102673527282, 0.038561428318510796, 89.99643619992393, 0, 0]
[0, 1.0504547712035732e-07, 9.780419219656498, 0.039586296138123866, 89.99642982375569, 0, 0]
[0, 1.0772235896358987e-07, 9.785791573965414, 0.0405940913392016, 89.99642353455297, 0, 0]
[0, 1.1031246956167556e-07, 9.791134674473804, 0.04157115361689919, 89.99641741932733, 0, 0]
[0, 1.1279227116394287e-07, 9.79637006757713, 0.04250543168993558, 89.99641155510251, 0, 0]
[0, 1.151296689398514e-07, 9.801426620189785, 0.0433865267542071, 89.99640600865442, 0, 0]
[0, 1.1730377908564166e-07, 9.806241069127182, 0.04420570749360363, 89.99640083635035, 0, 0]
[0, 1.1929328214108562e-07, 9.810758411089214, 0.04495589858789684, 89.99639608419487, 0, 0]
[0, 1.210860858502492e-07, 9.814932138836785, 0.045631644979735916, 89.9963917880518, 0, 0]
[0, 1.2267390888594682e-07, 9.818724330646074, 0.046229055965938175, 89.99638797395798, 0, 0]
[0, 1.240449080167058e-07, 9.82210560272344, 0.04674573008224856, 89.99638465859019, 0, 0]
[0, 1.2519588322195403e-07, 9.825054934984474, 0.04718066420935119, 89.9963818498008, 0, 0]
[0, 1.26126666420311e-07, 9.827559381949865, 0.047534150024796114, 89.99637954723778, 0, 0]
[0, 1.2687379904605595e-07, 9.829613681617982, 0.04780765996107384, 89.99637774308698, 0, 0]
[0, 1.2738628716198794e-07, 9.83121977561593, 0.048003725511519685, 89.99637642282227, 0, 0]
[0, 1.2770707282295232e-07, 9.83238625435841, 0.04812581046774512, 89.99637556593252, 0, 0]
[0, 1.2784447733489107e-07, 9.833127741417627, 0.04817818060738731, 89.9963751468248, 0, 0]
[0, 1.2780762489081697e-07, 9.833464230255188, 0.048165774481639785, 89.99637513556665, 0, 0]
[0, 1.2761858119296008e-07, 9.833420388010587, 0.04809407307094255, 89.99637549870508, 0, 0]
[0, 1.2729105193967834e-07, 9.833024838293664, 0.04796897465053557, 89.99637620009308, 0, 0]
[0, 1.2683582148072868e-07, 9.832309436266257, 0.047796673259729194, 89.99637720160142, 0, 0]
[0, 1.2626902213540209e-07, 9.83130854730723, 0.047583543569102084, 89.99637846388399, 0, 0]
[0, 1.2561118181380942e-07, 9.830058340296636, 0.0473360325731803, 89.99637994702833, 0, 0]
[0, 1.2488000622294745e-07, 9.82859610487726, 0.04706056030446551, 89.99638161120612, 0, 0]
[0, 1.240871170888876e-07, 9.826959602031225, 0.046763428117126075, 89.99638341722437, 0, 0]
[0, 1.2325895463689998e-07, 9.825186454862541, 0.04645073737201149, 89.99638532706092, 0, 0]
[0, 1.2240507177475249e-07, 9.823313586266542, 0.046128317842063386, 89.99638730432392, 0, 0]
[0, 1.2154366544487213e-07, 9.821376708778201, 0.04580166542395812, 89.996389314619, 0, 0]
[0, 1.2067507603340968e-07, 9.819409870339015, 0.045475890307743655, 89.99639132590136, 0, 0]
[0, 1.1982244603662544e-07, 9.81744505893579, 0.045155675080162674, 89.99639330872839, 0, 0]
[0, 1.1900013892161136e-07, 9.815511867876046, 0.04484524214913058, 89.99639523648156, 0, 0]
[0, 1.1821241085250505e-07, 9.8136372224081, 0.0445483302988781, 89.99639708551953, 0, 0]
[0, 1.1746984800768576e-07, 9.811845166963069, 0.044268181056187586, 89.99639883526233, 0, 0]
[0, 1.1677766075084999e-07, 9.810156712500117, 0.04400753197993055, 89.99640046822958, 0, 0]
[0, 1.161457109170469e-07, 9.808589741299164, 0.04376861802481663, 89.9964019700635, 0, 0]
[0, 1.1557205592151675e-07, 9.80715896631166, 0.043553181146527585, 89.99640332945239, 0, 0]
[0, 1.1506605804233126e-07, 9.805875942381745, 0.04336248417092149, 89.99640453804636, 0, 0]
[0, 1.146280349360122e-07, 9.804749124451702, 0.04319733185014696, 89.99640559037327, 0, 0]
[0, 1.1425841572720072e-07, 9.803783968999385, 0.04305809593283436, 89.9964064836243, 0, 0]
[0, 1.1395612466076914e-07, 9.802983073562258, 0.04294474480063911, 89.9964072175316, 0, 0]
[0, 1.1372444884533716e-07, 9.802346349641702, 0.042856876057681244, 89.99640779412329, 0, 0]
[0, 1.135555771566977e-07, 9.801871223655178, 0.04279375220054081, 89.99640821754753, 0, 0]
[0, 1.1345404835523358e-07, 9.801552861049009, 0.042754337355513455, 89.99640849381223, 0, 0]
[0, 1.1340714204982306e-07, 9.801384407971396, 0.042737336334006025, 89.99640863056314, 0, 0]
[0, 1.1341790157157867e-07, 9.80135724592909, 0.04274123363875923, 89.99640863686953, 0, 0]
[0, 1.134810093083727e-07, 9.80146125438943, 0.04276433246380937, 89.99640852291044, 0, 0]
[0, 1.1358552985313221e-07, 9.80168507672986, 0.04280479316008595, 89.99640829982155, 0, 0]
[0, 1.1372289379093327e-07, 9.802016385024048, 0.042860671290348866, 89.99640797941204, 0, 0]
[0, 1.1392806730516913e-07, 9.802442140224283, 0.04292995292927959, 89.99640757395798, 0, 0]
[0, 1.1413631013118996e-07, 9.80294884336137, 0.04301058970385426, 89.99640709598033, 0, 0]
[0, 1.1437224177085198e-07, 9.803522775368393, 0.043100529990593925, 89.99640655806125, 0, 0]
[0, 1.1462523948799833e-07, 9.80415022207705, 0.043197748847004516, 89.9964059726605, 0, 0]
[0, 1.1489918019811044e-07, 9.804817682448848, 0.043300274646241865, 89.99640535193166, 0, 0]
[0, 1.1518521745991698e-07, 9.805512057885208, 0.04340621315954586, 89.99640470758443, 0, 0]
[0, 1.1546797425776305e-07, 9.806220821312328, 0.0435137684599011, 89.99640405075452, 0, 0]
[0, 1.1575329621575934e-07, 9.80693216486726, 0.043621260826901445, 89.9964033918888, 0, 0]
[0, 1.1603388239597025e-07, 9.807635125596038, 0.043727141504774907, 89.99640274064586, 0, 0]
[0, 1.1630739235053858e-07, 9.808319688698557, 0.04383000501787012, 89.99640210582713, 0, 0]
[0, 1.1656858901468354e-07, 9.808976868783464, 0.04392859780031795, 89.99640149531558, 0, 0]
[0, 1.1681322359221724e-07, 9.80959876924549, 0.04402182433589797, 89.99640091602988, 0, 0]
[0, 1.1704790550219332e-07, 9.810178620599928, 0.044108750575400944, 89.99640037391674, 0, 0]
[0, 1.1725828009061085e-07, 9.810710798807236, 0.04418860474759493, 89.99639987392025, 0, 0]
[0, 1.1744702272337562e-07, 9.811190824705397, 0.04426077592982066, 89.99639941999723, 0, 0]
[0, 1.176206692897262e-07, 9.81161534613017, 0.04432481035861944, 89.99639901516309, 0, 0]
[0, 1.1776688264067879e-07, 9.811982104151697, 0.04438040585611253, 89.99639866146896, 0, 0]
[0, 1.1789319536503322e-07, 9.812289885224237, 0.044427404555835374, 89.99639836009345, 0, 0]
[0, 1.1799325170146523e-07, 9.81253846109365, 0.04446578390167791, 89.99639811137334, 0, 0]
[0, 1.1807288272618227e-07, 9.812728518096796, 0.044495646899461186, 89.99639791487235, 0, 0]
[0, 1.1813039850528096e-07, 9.81286157801914, 0.0445172106940464, 89.99639776942716, 0, 0]
[0, 1.1816621793549105e-07, 9.812939911905476, 0.04453079565181435, 89.99639767323926, 0, 0]
[0, 1.1818286452238628e-07, 9.812966449457432, 0.04453681177019592, 89.99639762393608, 0, 0]
[0, 1.1817949125188561e-07, 9.812944684703961, 0.04453574706891697, 89.99639761866288, 0, 0]
[0, 1.1815966227449782e-07, 9.812878580633575, 0.04452815395035318, 89.99639765415934, 0, 0]
[0, 1.181257646633157e-07, 9.812772473613501, 0.04451463679396401, 89.99639772679774, 0, 0]
[0, 1.1807525860140979e-07, 9.81263097936059, 0.04449583978396606, 89.99639783272076, 0, 0]
[0, 1.1801255616378374e-07, 9.812458902021298, 0.044472433811246166, 89.99639796788743, 0, 0]
[0, 1.1793893235672071e-07, 9.812261146842385, 0.04444510588825219, 89.99639812811897, 0, 0]
[0, 1.178581574100723e-07, 9.812042638350281, 0.04441454719781829, 89.99639830921367, 0, 0]
[0, 1.1777037509458594e-07, 9.811808243925869, 0.044381443903714665, 89.99639850698512, 0, 0]
[0, 1.1767740295330299e-07, 9.81156270452164, 0.044346466893129766, 89.99639871730815, 0, 0]
[0, 1.1758117358899241e-07, 9.811310572243157, 0.0443102634823048, 89.99639893621065, 0, 0]
[0, 1.1748354209885281e-07, 9.811056155508748, 0.044273450259389516, 89.99639915988121, 0, 0]
[0, 1.173860676896035e-07, 9.810803472157545, 0.04423660649188515, 89.99639938473037, 0, 0]
[0, 1.1729045153346986e-07, 9.81055621056368, 0.044200268265560276, 89.99639960741365, 0, 0]
[0, 1.1719311939119295e-07, 9.810317698502367, 0.04416492454001527, 89.99639982487729, 0, 0]
[0, 1.1710475550932082e-07, 9.810090880127158, 0.044131013132802356, 89.99640003437375, 0, 0]
[0, 1.1701980686905466e-07, 9.809878300230693, 0.044098918592144536, 89.9964002334616, 0, 0]
[0, 1.169409578828426e-07, 9.809682095911576, 0.04406897073054872, 89.99640042003612, 0, 0]
[0, 1.1686792423657274e-07, 9.809503995086184, 0.044041443608206776, 89.99640059234471, 0, 0]
[0, 1.1680419797907237e-07, 9.809345321250365, 0.04401655591412025, 89.99640074894855, 0, 0]
[0, 1.1674026851309465e-07, 9.809207004041946, 0.043994471893759074, 89.99640088876082, 0, 0]
[0, 1.16678780056984e-07, 9.80908959493261, 0.04397530316010911, 89.99640101100856, 0, 0]
[0, 1.1666059113867049e-07, 9.808993287539012, 0.04395911087449837, 89.99640111522487, 0, 0]
[0, 1.1662204344574392e-07, 9.808917941848108, 0.04394590837703041, 89.99640120124141, 0, 0]
[0, 1.165899154677413e-07, 9.808863111425527, 0.04393566518671299, 89.99640126917296, 0, 0]
[0, 1.1656644046468637e-07, 9.808828073657512, 0.04392830966879125, 89.99640131937926, 0, 0]
[0, 1.1655456635238806e-07, 9.808811861333151, 0.04392373408153847, 89.99640135245724, 0, 0]
[0, 1.1655015790193232e-07, 9.808813295992326, 0.043921798237949415, 89.99640136918758, 0, 0]
[0, 1.1655127483093302e-07, 9.8088310216773, 0.04392233411734598, 89.99640137054988, 0, 0]
[0, 1.1655945994295044e-07, 9.808863538980196, 0.043925150109871504, 89.99640135766155, 0, 0]
[0, 1.1657253511397343e-07, 9.80890923850839, 0.04393003590678586, 89.99640133177012, 0, 0]
[0, 1.1658762263337042e-07, 9.80896643362983, 0.043936766528760544, 89.99640129422255, 0, 0]
[0, 1.166113767250678e-07, 9.809033391818117, 0.043945106856263745, 89.99640124642707, 0, 0]
[0, 1.1663731817942798e-07, 9.809108364279039, 0.043954815860793375, 89.99640118983784, 0, 0]
[0, 1.1666936291731028e-07, 9.809189613713706, 0.04396565028913243, 89.99640112593197, 0, 0]
[0, 1.1669885225482144e-07, 9.809275439606044, 0.04397736865151357, 89.99640105618656, 0, 0]
[0, 1.1672882195432129e-07, 9.809364201287146, 0.04398973401323247, 89.99640098204044, 0, 0]
[0, 1.167636079473551e-07, 9.80945433800974, 0.044002517852403174, 89.99640090490949, 0, 0]
[0, 1.1679804617468148e-07, 9.80954438652482, 0.04401550243216589, 89.99640082613307, 0, 0]
[0, 1.168329681703844e-07, 9.809632995909807, 0.0440284827889619, 89.99640074698928, 0, 0]
[0, 1.1686708070710666e-07, 9.809718939239652, 0.04404126953877652, 89.99640066865676, 0, 0]
[0, 1.1690001671815995e-07, 9.80980112291811, 0.04405368969401134, 89.99640059221463, 0, 0]
[0, 1.1693274159021787e-07, 9.809878592893442, 0.044065588631022404, 89.99640051865016, 0, 0]
[0, 1.1696246171798532e-07, 9.80995053858201, 0.044076830627715745, 89.99640044882055, 0, 0]
[0, 1.1698993465439202e-07, 9.810016294193705, 0.04408729948168968, 89.99640038347584, 0, 0]
[0, 1.1701537692224125e-07, 9.810075337739775, 0.044096898949299884, 89.99640032322829, 0, 0]
[0, 1.170376887814235e-07, 9.810127288076586, 0.0441055524545626, 89.99640026859834, 0, 0]
[0, 1.1705808646041074e-07, 9.810171899856917, 0.044113203022869765, 89.99640021996099, 0, 0]
[0, 1.1707523852101092e-07, 9.810209057018348, 0.04411981246525785, 89.9964001775918, 0, 0]
[0, 1.1708981846698789e-07, 9.810238764688288, 0.044125360522343796, 89.99640014164378, 0, 0]
[0, 1.1710205172053306e-07, 9.810261139789384, 0.04412984435533635, 89.9964001121782, 0, 0]
[0, 1.1711172337278276e-07, 9.810276401021632, 0.04413327639907838, 89.99640008914146, 0, 0]
[0, 1.1711791922617177e-07, 9.810284857565598, 0.04413568410489366, 89.99640007240349, 0, 0]
[0, 1.1712059694459241e-07, 9.81028689775146, 0.044137107582883646, 89.9964000617423, 0, 0]
[0, 1.1712501974426702e-07, 9.810282977134268, 0.04413759837540083, 89.99640005686709, 0, 0]
[0, 1.1712304117187306e-07, 9.81027360637437, 0.04413721842195603, 89.99640005741813, 0, 0]
[0, 1.1711973097557262e-07, 9.81025933963224, 0.04413603728637774, 89.99640006299745, 0, 0]
[0, 1.1711390835930806e-07, 9.810240762647325, 0.04413413161373621, 89.99640007314586, 0, 0]
[0, 1.1710707837765383e-07, 9.81021848170427, 0.04413158276683779, 89.99640008737353, 0, 0]
[0, 1.1709745011412386e-07, 9.810193112762079, 0.04412847591465213, 89.99640010518299, 0, 0]
[0, 1.170875889348747e-07, 9.810165271579054, 0.044124898007661076, 89.9964001260385, 0, 0]
[0, 1.1708062811475117e-07, 9.810135564437687, 0.04412093642052856, 89.99640014941197, 0, 0]
[0, 1.1706679034261996e-07, 9.810104579643472, 0.04411667795830064, 89.99640017477533, 0, 0]
[0, 1.1705430294279286e-07, 9.810072880093566, 0.044112207396310214, 89.9964002016005, 0, 0]
[0, 1.1704546972125146e-07, 9.81004099677737, 0.0441076062110218, 89.99640022939764, 0, 0]
[0, 1.1703117256414174e-07, 9.810009423088651, 0.044102952076501785, 89.9964002576693, 0, 0]
[0, 1.1701865877773537e-07, 9.809978610348377, 0.04409831762751398, 89.9964002859792, 0, 0]
[0, 1.1700726662055382e-07, 9.809948964220046, 0.044093769674045304, 89.9964003138988, 0, 0]
[0, 1.1699507541525317e-07, 9.809920841959482, 0.044089369198916324, 89.9964003410454, 0, 0]
[0, 1.1698252364308483e-07, 9.809894550796576, 0.044085170423443704, 89.99640036707461, 0, 0]
[0, 1.1697253311644952e-07, 9.809870347139663, 0.044081220543883845, 89.99640039168793, 0, 0]
[0, 1.1696606444644293e-07, 9.809848436588071, 0.044077559391930886, 89.99640041461753, 0, 0]
[0, 1.1695521050529728e-07, 9.8098289745213, 0.044074220214784736, 89.99640043566437, 0, 0]
[0, 1.1694711339347773e-07, 9.809812067876653, 0.04407122835527015, 89.99640045463713, 0, 0]
[0, 1.1693986180164874e-07, 9.809797776970399, 0.0440686025434163, 89.99640047142103, 0, 0]
[0, 1.1693392542582365e-07, 9.809786118199547, 0.04406635480800991, 89.99640048593189, 0, 0]
[0, 1.1692914218823183e-07, 9.809777067221765, 0.04406449042135806, 89.99640049810843, 0, 0]
[0, 1.1692501301328286e-07, 9.809770562316412, 0.044063008737096544, 89.99640050795071, 0, 0]
[0, 1.1692212394905344e-07, 9.809766508223259, 0.04406190335640646, 89.99640051548164, 0, 0]
[0, 1.1692053247077784e-07, 9.809764780009107, 0.04406116304078367, 89.99640052077015, 0, 0]
[0, 1.1691936695970133e-07, 9.809765227341954, 0.0440607717241018, 89.99640052389273, 0, 0]
[0, 1.1691893703088487e-07, 9.809767678574179, 0.04406070953267943, 89.99640052496422, 0, 0]
[0, 1.1691873480775834e-07, 9.809771945040719, 0.04406095291571978, 89.99640052412234, 0, 0]
[0, 1.1692309417483733e-07, 9.809777825037783, 0.04406147584452853, 89.99640052152019, 0, 0]
[0, 1.1692303506096317e-07, 9.809785107959586, 0.04406225002263615, 89.99640051732612, 0, 0]
[0, 1.169248095686869e-07, 9.809793578209794, 0.0440632450632337, 89.99640051172383, 0, 0]
[0, 1.1692726802656464e-07, 9.809803018596158, 0.044064430023405474, 89.99640050488935, 0, 0]
[0, 1.1693132392936907e-07, 9.809813213871363, 0.04406577333552645, 89.99640049702931, 0, 0]
[0, 1.1694090369632677e-07, 9.809823953794313, 0.04406724333243237, 89.99640048831975, 0, 0]
[0, 1.1694009275128244e-07, 9.809835035948186, 0.04406880857868118, 89.99640047896729, 0, 0]
[0, 1.1694433621900355e-07, 9.809846268024403, 0.0440704390069318, 89.99640046915563, 0, 0]
[0, 1.1694883315696364e-07, 9.809857470122825, 0.04407210549942059, 89.99640045905315, 0, 0]
[0, 1.1695361788476434e-07, 9.809868476465809, 0.0440737804488812, 89.99640044885116, 0, 0]
[0, 1.1695812519481452e-07, 9.80987913671104, 0.04407543844621306, 89.99640043868746, 0, 0]
[0, 1.169624664604581e-07, 9.809889317136598, 0.044077056148061816, 89.99640042872274, 0, 0]
[0, 1.1696629269815848e-07, 9.809898901434963, 0.04407861219530499, 89.99640041909475, 0, 0]
[0, 1.1697062032656723e-07, 9.809907790956265, 0.04408008817818594, 89.99640040991068, 0, 0]
[0, 1.1697393044439698e-07, 9.809915905013538, 0.04408146801872794, 89.99640040127764, 0, 0]
[0, 1.1697754334651154e-07, 9.809923180680636, 0.044082738170629576, 89.9964003932875, 0, 0]
[0, 1.1698063038699607e-07, 9.809929572338735, 0.044083887928082, 89.99640038600911, 0, 0]
[0, 1.1698318192202414e-07, 9.809935051088518, 0.04408490913114619, 89.99640037949608, 0, 0]
[0, 1.1698559628617747e-07, 9.80993960395252, 0.044085796019703326, 89.99640037379429, 0, 0]
[0, 1.1698763544329549e-07, 9.809943232814085, 0.04408654524890079, 89.99640036891907, 0, 0]
[0, 1.1698915721166443e-07, 9.809945953260767, 0.044087155854788965, 89.99640036489339, 0, 0]
[0, 1.1699051317613407e-07, 9.80994779328774, 0.04408762908408029, 89.99640036170958, 0, 0]
[0, 1.1699117884800742e-07, 9.809948792012815, 0.04408796803655782, 89.99640035935232, 0, 0]
[0, 1.1699188162418729e-07, 9.809948998188673, 0.04408817753753619, 89.99640035779105, 0, 0]
[0, 1.1699224593469255e-07, 9.809948468701284, 0.04408826429827751, 89.99640035700273, 0, 0]
[0, 1.1699226137013797e-07, 9.80994726727416, 0.04408823582848815, 89.9964003569262, 0, 0]
[0, 1.1699126457074148e-07, 9.809945462773767, 0.04408810119299104, 89.99640035752317, 0, 0]
[0, 1.1699001340376491e-07, 9.809943127899245, 0.044087870357251306, 89.99640035872474, 0, 0]
[0, 1.169917448817577e-07, 9.809940337794293, 0.0440875539278519, 89.99640036047738, 0, 0]
[0, 1.1699070598570728e-07, 9.80993716878383, 0.04408716282779817, 89.99640036270452, 0, 0]
[0, 1.1698854068913942e-07, 9.8099336970329, 0.04408670845840251, 89.99640036534494, 0, 0]
[0, 1.1697469341580883e-07, 9.809929997442344, 0.04408620249834787, 89.99640036832976, 0, 0]
[0, 1.169948163564579e-07, 9.80992614274546, 0.04408565609636636, 89.99640037158245, 0, 0]
[0, 1.1698785439046128e-07, 9.809922202390972, 0.04408508063900003, 89.99640037503414, 0, 0]
[0, 1.1698378569312752e-07, 9.809918241927445, 0.04408448673914084, 89.99640037862358, 0, 0]
[0, 1.1699286316360384e-07, 9.809914322207423, 0.04408388466535748, 89.99640038228956, 0, 0]
[0, 1.1696816159268497e-07, 9.809910498827245, 0.04408328416204813, 89.9964003859632, 0, 0]
[0, 1.1696674101435547e-07, 9.809906821826928, 0.04408269385921508, 89.99640038959092, 0, 0]
[0, 1.169747488307969e-07, 9.80990333516497, 0.044082121998752034, 89.99640039312678, 0, 0]
[0, 1.1697550527965118e-07, 9.809900076664908, 0.044081575707795334, 89.99640039652489, 0, 0]
[0, 1.1697361397440834e-07, 9.809897077865358, 0.044081061281583685, 89.99640039973931, 0, 0]
[0, 1.1697318104096804e-07, 9.80989436402607, 0.044080584032076355, 89.99640040273178, 0, 0]
[0, 1.1696089618845868e-07, 9.809891954216454, 0.044080148378431674, 89.99640040548701, 0, 0]
[0, 1.1697957773232585e-07, 9.809889861537128, 0.04407975768388364, 89.99640040797436, 0, 0]
[0, 1.1697394391437465e-07, 9.809888093340764, 0.0440794143989857, 89.99640041017089, 0, 0]
[0, 1.1696911056212464e-07, 9.809886651548068, 0.044079120175101745, 89.9964004120766, 0, 0]
[0, 1.1695544040675624e-07, 9.80988553302033, 0.044078875885671394, 89.99640041367614, 0, 0]
[0, 1.1697265747620789e-07, 9.809884730104407, 0.04407868126242501, 89.99640041497722, 0, 0]
[0, 1.169720787778075e-07, 9.8098842308924, 0.044078535741081414, 89.99640041597216, 0, 0]
[0, 1.1696567866185067e-07, 9.809884019938911, 0.04407843764178434, 89.99640041666864, 0, 0]
[0, 1.169667332858463e-07, 9.809884078570978, 0.044078384990447084, 89.99640041708956, 0, 0]
[0, 1.1696673092781873e-07, 9.809884385512476, 0.04407837525723401, 89.99640041724264, 0, 0]
[0, 1.1696919880741053e-07, 9.809884917417452, 0.04407840525360771, 89.99640041714315, 0, 0]
[0, 1.1696529825073672e-07, 9.809885649291996, 0.044078471645667944, 89.9964004168217, 0, 0]
[0, 1.1696567434706953e-07, 9.809886555081865, 0.04407857066437415, 89.99640041628597, 0, 0]
[0, 1.1695429467583863e-07, 9.809887608058064, 0.04407869843482041, 89.99640041555888, 0, 0]
[0, 1.1697503599157393e-07, 9.809888781311304, 0.04407885100238594, 89.99640041468639, 0, 0]
[0, 1.1698275935892655e-07, 9.80989004822392, 0.04407902406668653, 89.9964004136685, 0, 0]
[0, 1.1694769653653403e-07, 9.809891382747928, 0.044079213551542984, 89.99640041254344, 0, 0]
[0, 1.1696208346293221e-07, 9.809892759774266, 0.044079415471614834, 89.9964004113342, 0, 0]
[0, 1.1696935403091873e-07, 9.809894155529884, 0.044079625683200736, 89.99640041006758, 0, 0]
[0, 1.1697467184261494e-07, 9.809895547640668, 0.04407984070245687, 89.99640040876267, 0, 0]
[0, 1.1697360381948445e-07, 9.809896915622796, 0.044080056628329464, 89.99640040744629, 0, 0]
[0, 1.169734058592235e-07, 9.80989824080513, 0.04408027028950921, 89.9964004061299, 0, 0]
[0, 1.1697855067328326e-07, 9.809899506554238, 0.04408047875913292, 89.99640040484412, 0, 0]
[0, 1.1697947732231397e-07, 9.809900698439435, 0.0440806792612831, 89.99640040360428, 0, 0]
[0, 1.1698428527764332e-07, 9.809901804223411, 0.044080869299324914, 89.996400402418, 0, 0]
[0, 1.169751518018501e-07, 9.80990281386682, 0.04408104681614048, 89.9964004013006, 0, 0]
[0, 1.1695874298575259e-07, 9.809903719516157, 0.04408121012428111, 89.99640040027505, 0, 0]
[0, 1.1696421442956005e-07, 9.809904515497111, 0.04408135776457246, 89.99640039933368, 0, 0]
[0, 1.1697397744233443e-07, 9.809905198143793, 0.04408148885845842, 89.99640039849946, 0, 0]
[0, 1.1698731331976548e-07, 9.809905765866127, 0.04408160243771004, 89.99640039776473, 0, 0]
[0, 1.1696966750897166e-07, 9.80990621879925, 0.04408169831029882, 89.99640039713715, 0, 0]
[0, 1.1697064586600992e-07, 9.809906558851122, 0.04408177631649854, 89.99640039662438, 0, 0]
[0, 1.1700078857257425e-07, 9.809906789478974, 0.04408183653918063, 89.99640039621875, 0, 0]
[0, 1.1698224434623186e-07, 9.809906915448702, 0.0440818796332445, 89.99640039592026, 0, 0]
[0, 1.1695787567226786e-07, 9.809906942858737, 0.04408190588943847, 89.99640039572128, 0, 0]
[0, 1.1696489981470892e-07, 9.809906878681256, 0.04408191643160741, 89.99640039562179, 0, 0]
[0, 1.1697566666587549e-07, 9.809906730835996, 0.04408191211371272, 89.99640039561413, 0, 0]
[0, 1.1699778756155331e-07, 9.809906507812208, 0.04408189426522919, 89.99640039569832, 0, 0]
[0, 1.1697747921530057e-07, 9.80990621861266, 0.044081864213827024, 89.99640039585904, 0, 0]
[0, 1.1697912620435459e-07, 9.809905872633918, 0.04408182302320906, 89.99640039608099, 0, 0]
[0, 1.1697772662416451e-07, 9.809905479266677, 0.04408177245648922, 89.99640039637181, 0, 0]
[0, 1.1699206472718164e-07, 9.809905048002662, 0.04408171382963703, 89.99640039671623, 0, 0]
[0, 1.1696547996040442e-07, 9.809904588157876, 0.044081648626844154, 89.9964003970989, 0, 0]
[0, 1.1698416274592448e-07, 9.80990410875492, 0.04408157837134293, 89.99640039751982, 0, 0]
[0, 1.169792294488611e-07, 9.809903618453346, 0.04408150444824349, 89.99640039796373, 0, 0]
[0, 1.1697308038521807e-07, 9.809903125388152, 0.0440814283225844, 89.99640039842292, 0, 0]
[0, 1.1697291962971629e-07, 9.809902637177974, 0.044081351166786784, 89.99640039889744, 0, 0]
[0, 1.1695267243519686e-07, 9.809902160739705, 0.044081274288672756, 89.99640039936429, 0, 0]
[0, 1.1697452486741441e-07, 9.80990170230388, 0.0440811988529382, 89.99640039983116, 0, 0]
[0, 1.1696141727190834e-07, 9.809901267381743, 0.04408112582828168, 89.9964004002827, 0, 0]
[0, 1.1697736960691307e-07, 9.809900860678916, 0.04408105622346084, 89.99640040071894, 0, 0]
[0, 1.1697362770538328e-07, 9.80990048617655, 0.044080990727507714, 89.99640040112457, 0, 0]
[0, 1.169577509330301e-07, 9.809900147032064, 0.04408093006748551, 89.99640040150724, 0, 0]
[0, 1.1696567962727297e-07, 9.809899845651934, 0.04408087477897753, 89.9964004018593, 0, 0]
[0, 1.169841254824833e-07, 9.809899583710568, 0.04408082522318355, 89.9964004021731, 0, 0]
[0, 1.1696274632360472e-07, 9.809899362123298, 0.04408078182120403, 89.99640040245627, 0, 0]
[0, 1.1695563467816792e-07, 9.809899181186731, 0.04408074465727292, 89.99640040269352, 0, 0]
[0, 1.1696759585103267e-07, 9.809899040508066, 0.044080713933293825, 89.99640040290016, 0, 0]
[0, 1.1698553478679017e-07, 9.809898939181446, 0.044080689533644475, 89.99640040306089, 0, 0]
[0, 1.1695345733092387e-07, 9.809898875717359, 0.04408067149011112, 89.99640040318334, 0, 0]
[0, 1.1696218447855882e-07, 9.809898848248746, 0.04408065942073975, 89.99640040326753, 0, 0]
[0, 1.1699490954473804e-07, 9.809898854483437, 0.044080653045640496, 89.9964004033211, 0, 0]
[0, 1.1697614970519127e-07, 9.80989889172384, 0.044080652240720414, 89.99640040333641, 0, 0]
[0, 1.1696556685085656e-07, 9.809898957137984, 0.04408065635749562, 89.9964004033211, 0, 0]
[0, 1.1696972413828854e-07, 9.809899047575753, 0.044080665155404916, 89.99640040328283, 0, 0]
[0, 1.169466842992045e-07, 9.809899159806362, 0.04408067810532066, 89.9964004032063, 0, 0]
[0, 1.1699163717236817e-07, 9.809899290502772, 0.04408069473612534, 89.99640040311445, 0, 0]
[0, 1.1695959863407245e-07, 9.809899436348587, 0.04408071438674272, 89.99640040299965, 0, 0]
[0, 1.169730814719228e-07, 9.80989959404087, 0.04408073646183916, 89.99640040286955, 0, 0]
[0, 1.170019394382602e-07, 9.8098997602472, 0.04408076076269233, 89.99640040272413, 0, 0]
[0, 1.1698494342494439e-07, 9.809899931927033, 0.04408078639167179, 89.99640040257107, 0, 0]
[0, 1.1695289548461876e-07, 9.80990010596365, 0.044080813376202156, 89.99640040241036, 0, 0]
[0, 1.1698804595229719e-07, 9.809900279742655, 0.04408084065014949, 89.99640040224197, 0, 0]
[0, 1.1697880183548214e-07, 9.809900450573833, 0.04408086817476387, 89.9964004020736, 0, 0]
[0, 1.1695573399622961e-07, 9.809900616147887, 0.04408089541717884, 89.99640040190522, 0, 0]
[0, 1.170139896187616e-07, 9.809900774465703, 0.044080921683067174, 89.99640040174451, 0, 0]
[0, 1.1693791896188223e-07, 9.809900923616494, 0.04408094699292791, 89.99640040158761, 0, 0]
[0, 1.169880872993999e-07, 9.809901062067695, 0.044080971016417246, 89.99640040143836, 0, 0]
[0, 1.1700219015425982e-07, 9.809901188557198, 0.044080993480247826, 89.9964004013006, 0, 0]
[0, 1.1697437242976488e-07, 9.809901302123873, 0.04408101405538719, 89.9964004011705, 0, 0]
[0, 1.1697165998670291e-07, 9.809901402056623, 0.04408103251416218, 89.99640040104804, 0, 0]
[0, 1.1694006148755514e-07, 9.809901487828263, 0.04408104898636867, 89.99640040094472, 0, 0]
[0, 1.1695873237201473e-07, 9.809901559258932, 0.044081063242782374, 89.99640040084905, 0, 0]
[0, 1.1699557979047016e-07, 9.809901616342708, 0.044081075281676395, 89.99640040077252, 0, 0]
[0, 1.1695803090586356e-07, 9.809901659334987, 0.044081085009369844, 89.9964004007113, 0, 0]
[0, 1.1699290721995643e-07, 9.809901688648742, 0.044081092476225825, 89.99640040065772, 0, 0]
[0, 1.1693046047524447e-07, 9.809901704878714, 0.04408109772057009, 89.99640040061945, 0, 0]
[0, 1.169595721661319e-07, 9.809901708760762, 0.04408110085420254, 89.9964004005965, 0, 0]
[0, 1.1702591933292714e-07, 9.809901701169279, 0.04408110199134616, 89.99640040058884, 0, 0]
[0, 1.1697211548257547e-07, 9.809901683060865, 0.04408110135851619, 89.99640040058884, 0, 0]
[0, 1.1696142455366405e-07, 9.809901655522163, 0.04408109898556216, 89.9964004005965, 0, 0]
[0, 1.1699481316803541e-07, 9.809901619683409, 0.04408109503523541, 89.99640040061945, 0, 0]
[0, 1.1695016711769e-07, 9.809901576686672, 0.04408108973829443, 89.99640040065007, 0, 0]
[0, 1.1696347661366688e-07, 9.809901527696477, 0.044081083379236614, 89.99640040068834, 0, 0]
[0, 1.169719813812566e-07, 9.809901473972259, 0.04408107579053754, 89.9964004007266, 0, 0]
[0, 1.169755222653212e-07, 9.80990141660562, 0.04408106749291094, 89.99640040078017, 0, 0]
[0, 1.1697385133715518e-07, 9.809901356713755, 0.044081058701318294, 89.99640040083375, 0, 0]
[0, 1.1697204079188682e-07, 9.809901295494052, 0.04408104916517342, 89.99640040088732, 0, 0]
[0, 1.1697077700576959e-07, 9.809901233840097, 0.0440810395536495, 89.99640040094854, 0, 0]
[0, 1.1697331876552822e-07, 9.809901172783126, 0.04408102968759242, 89.99640040100977, 0, 0]
[0, 1.1697394102860153e-07, 9.809901113143152, 0.044081019949500755, 89.99640040106334, 0, 0]
[0, 1.1697431805976245e-07, 9.809901055675368, 0.04408101059962582, 89.99640040112457, 0, 0]
[0, 1.169744645025925e-07, 9.809901001149619, 0.044081001453042744, 89.99640040118581, 0, 0]
[0, 1.1699474388944654e-07, 9.809900950126977, 0.04408099276910278, 89.99640040123937, 0, 0]
[0, 1.1697969940320176e-07, 9.809900903133839, 0.04408098452971581, 89.9964004012853, 0, 0]
[0, 1.1694197387423019e-07, 9.809900860555686, 0.04408097687748299, 89.99640040133504, 0, 0]
[0, 1.1695646086104763e-07, 9.809900822658657, 0.04408097003540307, 89.99640040137714, 0, 0]
[0, 1.1697376383026892e-07, 9.809900789745354, 0.04408096369989489, 89.99640040141541, 0, 0]
[0, 1.1697807266626855e-07, 9.809900761847832, 0.04408095824345814, 89.99640040145368, 0, 0]
[0, 1.1697710761452904e-07, 9.80990073905011, 0.0440809535195021, 89.99640040148428, 0, 0]
[0, 1.1697530494228778e-07, 9.809900721246013, 0.04408094979462575, 89.99640040150724, 0, 0]
[0, 1.1696822009625007e-07, 9.80990070835076, 0.04408094692961362, 89.99640040153021, 0, 0]
[0, 1.1700035148446464e-07, 9.809900700284421, 0.04408094454100581, 89.99640040154551, 0, 0]
[0, 1.169489090612812e-07, 9.809900696680739, 0.044080943128332946, 89.99640040155317, 0, 0]
[0, 1.1696708733508204e-07, 9.809900697309182, 0.044080942414460644, 89.99640040156082, 0, 0]
[0, 1.169729255167721e-07, 9.809900701845098, 0.04408094234620534, 89.99640040156082, 0, 0]
[0, 1.1699556482638143e-07, 9.809900709930417, 0.04408094284996221, 89.99640040156082, 0, 0]
[0, 1.1695240897457206e-07, 9.80990072115169, 0.0440809439781542, 89.99640040155317, 0, 0]
[0, 1.1696660630482122e-07, 9.809900735124415, 0.04408094561096989, 89.99640040154551, 0, 0]
[0, 1.1697338755815753e-07, 9.809900751384431, 0.04408094785363133, 89.99640040153785, 0, 0]
[0, 1.1697372653280672e-07, 9.809900769595675, 0.04408095029668398, 89.99640040152255, 0, 0]
[0, 1.1697354914085106e-07, 9.809900789300762, 0.044080953117847745, 89.9964004014996, 0, 0]
[0, 1.1697565919335995e-07, 9.809900810067417, 0.044080956236592146, 89.99640040148428, 0, 0]
[0, 1.1697404949722844e-07, 9.809900831584807, 0.04408095933278485, 89.99640040146133, 0, 0]
[0, 1.1697291476721517e-07, 9.809900853370698, 0.04408096276150665, 89.99640040144601, 0, 0]
[0, 1.1697307650681245e-07, 9.809900875172472, 0.04408096607342498, 89.99640040142306, 0, 0]
[0, 1.1697387724405857e-07, 9.8099008965633, 0.04408096960162168, 89.9964004014001, 0, 0]
[0, 1.1697066573008242e-07, 9.809900917318915, 0.04408097303976587, 89.99640040138479, 0, 0]
[0, 1.1699453608448714e-07, 9.809900937140176, 0.044080976512155104, 89.99640040136184, 0, 0]
[0, 1.1695137711275381e-07, 9.809900955870908, 0.04408097964249179, 89.99640040133887, 0, 0]
[0, 1.169667020810366e-07, 9.809900973293784, 0.044080982521541384, 89.99640040132357, 0, 0]
[0, 1.1696770203095345e-07, 9.809900989172787, 0.044080985401199764, 89.99640040130826, 0, 0]
[0, 1.1697503569144617e-07, 9.809901003449957, 0.0440809879876694, 89.9964004012853, 0, 0]
[0, 1.1697482461314518e-07, 9.809901016038436, 0.044080990228208834, 89.99640040127764, 0, 0]
[0, 1.1697600269992263e-07, 9.809901026818105, 0.04408099237051436, 89.99640040126235, 0, 0]
[0, 1.1697409707955846e-07, 9.809901035821056, 0.04408099415242772, 89.99640040124703, 0, 0]
[0, 1.1697060664385416e-07, 9.809901043049294, 0.044080995573129375, 89.99640040123937, 0, 0]
[0, 1.1697311393236801e-07, 9.809901048497906, 0.04408099675327861, 89.99640040123172, 0, 0]
[0, 1.1697321155490106e-07, 9.809901052229323, 0.04408099762232217, 89.99640040122408, 0, 0]
[0, 1.1697254084837386e-07, 9.809901054260926, 0.04408099846583621, 89.99640040122408, 0, 0]
[0, 1.1697157390246343e-07, 9.809901054780154, 0.04408099889431159, 89.99640040121642, 0, 0]
[0, 1.1697375978870121e-07, 9.809901053884085, 0.04408099897954018, 89.99640040121642, 0, 0]
[0, 1.1696986823763269e-07, 9.809901051686962, 0.04408099876228958, 89.99640040121642, 0, 0]
[0, 1.1699596244333067e-07, 9.809901048265875, 0.04408099845206749, 89.99640040121642, 0, 0]
[0, 1.169539441405024e-07, 9.809901043793623, 0.04408099797075531, 89.99640040122408, 0, 0]
[0, 1.1696457286273365e-07, 9.809901038466178, 0.04408099714225761, 89.99640040122408, 0, 0]
[0, 1.1697149362618848e-07, 9.809901032300319, 0.044080996508054984, 89.99640040123172, 0, 0]
[0, 1.1697802883465975e-07, 9.809901025574053, 0.04408099555336112, 89.99640040123172, 0, 0]
[0, 1.1697637934052559e-07, 9.809901018382728, 0.04408099457563099, 89.99640040123937, 0, 0]
[0, 1.1699720558327554e-07, 9.809901010883436, 0.044080993441062324, 89.99640040124703, 0, 0]
[0, 1.1695400607521226e-07, 9.809901003190184, 0.04408099235290197, 89.99640040125468, 0, 0]
[0, 1.1696217436187502e-07, 9.809900995512203, 0.04408099093356892, 89.99640040126235, 0, 0]
[0, 1.1697034308097302e-07, 9.809900987822756, 0.044080989804557366, 89.99640040127, 0, 0]
[0, 1.1697629540278019e-07, 9.809900980356995, 0.044080988522966394, 89.99640040127764, 0, 0]
[0, 1.16972980658321e-07, 9.809900973158257, 0.04408098730396779, 89.9964004012853, 0, 0]
[0, 1.169733655276546e-07, 9.809900966310817, 0.04408098614251335, 89.99640040129295, 0, 0]
[0, 1.1700044555609418e-07, 9.809900959905855, 0.04408098503660731, 89.9964004013006, 0, 0]
[0, 1.1695332047796297e-07, 9.809900953984084, 0.044080984060226716, 89.99640040130826, 0, 0]
[0, 1.1696168761748318e-07, 9.809900948615057, 0.04408098315651669, 89.99640040130826, 0, 0]
[0, 1.1696810713244648e-07, 9.809900943847934, 0.04408098228924893, 89.99640040131591, 0, 0]
[0, 1.1696953638694052e-07, 9.809900939701532, 0.044080981520932046, 89.99640040132357, 0, 0]
[0, 1.1697941202683823e-07, 9.809900936154527, 0.04408098097406373, 89.99640040132357, 0, 0]
[0, 1.1697270347818679e-07, 9.809900933285745, 0.0440809803606088, 89.99640040133121, 0, 0]
[0, 1.169733734739487e-07, 9.809900931069665, 0.044080979783308584, 89.99640040133121, 0, 0]
[0, 1.1697369845752771e-07, 9.809900929417761, 0.04408097952276303, 89.99640040133887, 0, 0]
[0, 1.1697537635468925e-07, 9.809900928422735, 0.044080979105498345, 89.99640040133887, 0, 0]
[0, 1.1697059422088646e-07, 9.809900927995159, 0.044080978791348674, 89.99640040133887, 0, 0]
[0, 1.1697179616022889e-07, 9.809900928033162, 0.0440809788161251, 89.99640040133887, 0, 0]
[0, 1.1697503808590067e-07, 9.809900928585963, 0.04408097882101683, 89.99640040133887, 0, 0]
[0, 1.1697351239900981e-07, 9.809900929597916, 0.04408097887359291, 89.99640040133887, 0, 0]
[0, 1.1697091948983065e-07, 9.809900930949675, 0.04408097918597104, 89.99640040133887, 0, 0]
[0, 1.1697195405889448e-07, 9.80990093274111, 0.04408097921111099, 89.99640040133887, 0, 0]
[0, 1.1697257794525356e-07, 9.809900934754255, 0.044080979590295694, 89.99640040133887, 0, 0]
[0, 1.1697223322730155e-07, 9.809900937061503, 0.04408097977615951, 89.99640040133887, 0, 0]
[0, 1.1697277937820012e-07, 9.809900939493762, 0.04408098027894216, 89.99640040133887, 0, 0]
[0, 1.1697301297164252e-07, 9.809900942123631, 0.044080980559320006, 89.99640040132357, 0, 0]
[0, 1.1697299455542727e-07, 9.809900944813558, 0.044080980991487564, 89.99640040132357, 0, 0]
[0, 1.1697249279204028e-07, 9.809900947561086, 0.044080981349091226, 89.99640040132357, 0, 0]
[0, 1.1697281660461646e-07, 9.809900950253994, 0.04408098194782781, 89.99640040132357, 0, 0]
[0, 1.1697295313453129e-07, 9.809900952938447, 0.04408098237222909, 89.99640040132357, 0, 0]
[0, 1.1697264212466305e-07, 9.809900955564888, 0.044080982748560704, 89.99640040132357, 0, 0]
[0, 1.1697334490333911e-07, 9.809900958061414, 0.04408098316360916, 89.99640040130826, 0, 0]
[0, 1.1697253829795802e-07, 9.809900960406134, 0.04408098357441819, 89.99640040130826, 0, 0]
[0, 1.1697281895063819e-07, 9.809900962612838, 0.044080983882813375, 89.99640040130826, 0, 0]
[0, 1.169732241523857e-07, 9.809900964617933, 0.04408098418504837, 89.99640040130826, 0, 0]
[0, 1.1697276767051165e-07, 9.809900966413375, 0.04408098451269684, 89.99640040130826, 0, 0]
[0, 1.1697294496558083e-07, 9.809900967993569, 0.04408098481251855, 89.99640040130826, 0, 0]
[0, 1.1697247973836953e-07, 9.809900969320953, 0.04408098519928605, 89.99640040130826, 0, 0]
[0, 1.169733458480715e-07, 9.80990097050049, 0.044080985217516834, 89.99640040129295, 0, 0]
[0, 1.1697285074644823e-07, 9.809900971373509, 0.0440809855532589, 89.99640040129295, 0, 0]
[0, 1.1697277013488653e-07, 9.80990097207419, 0.04408098563021412, 89.99640040129295, 0, 0]
[0, 1.1697307944786816e-07, 9.809900972525655, 0.04408098582338413, 89.99640040129295, 0, 0]
[0, 1.1697295239528752e-07, 9.809900972785025, 0.04408098593005655, 89.99640040129295, 0, 0]
[0, 1.1697263979105638e-07, 9.809900972889576, 0.04408098583771773, 89.99640040129295, 0, 0]
[0, 1.169730417329234e-07, 9.809900972741042, 0.044080986000390183, 89.99640040129295, 0, 0]
[0, 1.1697309392906833e-07, 9.809900972481403, 0.044080985924617046, 89.99640040129295, 0, 0]
[0, 1.1697271446751287e-07, 9.809900972072207, 0.04408098581075346, 89.99640040129295, 0, 0]
[0, 1.1697269125245601e-07, 9.809900971498896, 0.04408098580604796, 89.99640040129295, 0, 0]
[0, 1.1697268925504975e-07, 9.809900970793192, 0.04408098583490396, 89.99640040129295, 0, 0]
[0, 1.1697314432822802e-07, 9.809900970046774, 0.044080985664249644, 89.99640040129295, 0, 0]
[0, 1.169728991696006e-07, 9.809900969255066, 0.04408098535511169, 89.99640040129295, 0, 0]
[0, 1.1697269750049816e-07, 9.80990096829463, 0.044080985446999954, 89.99640040129295, 0, 0]
[0, 1.1697326912157322e-07, 9.809900967389765, 0.044080985173164285, 89.99640040129295, 0, 0]
[0, 1.1697235542017598e-07, 9.809900966389291, 0.04408098516536999, 89.99640040130826, 0, 0]
[0, 1.1697304049644516e-07, 9.809900965466682, 0.04408098482610837, 89.99640040130826, 0, 0]
[0, 1.1697295417514603e-07, 9.809900964473176, 0.044080984800297034, 89.99640040130826, 0, 0]
[0, 1.1697280912656739e-07, 9.809900963519974, 0.04408098469766222, 89.99640040130826, 0, 0]
[0, 1.1697246459712709e-07, 9.809900962611191, 0.044080984564771566, 89.99640040130826, 0, 0]
[0, 1.169728216552271e-07, 9.809900961784633, 0.044080984294464644, 89.99640040130826, 0, 0]
[0, 1.1697309219161661e-07, 9.809900960937888, 0.044080984321135275, 89.99640040130826, 0, 0]
[0, 1.1697268042007311e-07, 9.809900960206923, 0.044080984167127156, 89.99640040130826, 0, 0]
[0, 1.1697279913259197e-07, 9.809900959543247, 0.04408098402149082, 89.99640040130826, 0, 0]
[0, 1.1697322071449044e-07, 9.809900958982025, 0.044080983760249846, 89.99640040130826, 0, 0]
[0, 1.1697269262468859e-07, 9.809900958449628, 0.044080983703038555, 89.99640040130826, 0, 0]
[0, 1.1697266035784105e-07, 9.809900957968853, 0.044080983768097715, 89.99640040130826, 0, 0]
[0, 1.1697287300768903e-07, 9.809900957616755, 0.04408098366423112, 89.99640040130826, 0, 0]
[0, 1.1697285511422692e-07, 9.809900957371136, 0.04408098346638879, 89.99640040130826, 0, 0]
[0, 1.1697547047461622e-07, 9.809900957154513, 0.044080983475232906, 89.99640040130826, 0, 0]
[0, 1.1697152858308015e-07, 9.809900957014882, 0.04408098345478229, 89.99640040130826, 0, 0]
[0, 1.1697227679847122e-07, 9.809900956947637, 0.04408098346508921, 89.99640040130826, 0, 0]
[0, 1.1697272962428274e-07, 9.809900956979897, 0.044080983348869125, 89.99640040130826, 0, 0]
[0, 1.1697267202204667e-07, 9.8099009570295, 0.0440809834464506, 89.99640040130826, 0, 0]
[0, 1.1697251539760963e-07, 9.809900957141565, 0.0440809834979367, 89.99640040130826, 0, 0]
[0, 1.1697300902702389e-07, 9.809900957306713, 0.04408098356077882, 89.99640040130826, 0, 0]
[0, 1.169730424255366e-07, 9.80990095758051, 0.04408098336686697, 89.99640040130826, 0, 0]
[0, 1.1697261366635794e-07, 9.80990095780138, 0.044080983543526825, 89.99640040130826, 0, 0]
[0, 1.169730420252515e-07, 9.80990095806456, 0.04408098366191825, 89.99640040130826, 0, 0]
[0, 1.1697294724720098e-07, 9.809900958391056, 0.04408098364703729, 89.99640040130826, 0, 0]
[0, 1.169726673429844e-07, 9.809900958756788, 0.044080983536631695, 89.99640040130826, 0, 0]
[0, 1.1697292787749754e-07, 9.809900959113314, 0.044080983508329036, 89.99640040130826, 0, 0]
[0, 1.1697270192665005e-07, 9.809900959401425, 0.044080983786657785, 89.99640040130826, 0, 0]
[0, 1.169727811964475e-07, 9.80990095974139, 0.04408098381566364, 89.99640040130826, 0, 0]
[0, 1.1697339688687221e-07, 9.809900960075808, 0.044080983903335334, 89.99640040130826, 0, 0]
[0, 1.1697231667021703e-07, 9.809900960432225, 0.04408098383399266, 89.99640040130826, 0, 0]
[0, 1.1697265102493894e-07, 9.809900960760034, 0.044080983833582894, 89.99640040130826, 0, 0]
[0, 1.169732050417129e-07, 9.809900961029038, 0.04408098395303212, 89.99640040130826, 0, 0]
[0, 1.1697314991254975e-07, 9.809900961287088, 0.04408098407770428, 89.99640040130826, 0, 0]
[0, 1.1697269484394698e-07, 9.809900961528527, 0.04408098414779443, 89.99640040130826, 0, 0]
[0, 1.169730552152416e-07, 9.80990096174766, 0.044080984203337295, 89.99640040130826, 0, 0]
[0, 1.1697270385040416e-07, 9.809900961944091, 0.044080984275872225, 89.99640040130826, 0, 0]
[0, 1.1697297066054216e-07, 9.809900962115455, 0.044080984315936024, 89.99640040130826, 0, 0]
[0, 1.1697256467317511e-07, 9.809900962290577, 0.04408098421273038, 89.99640040130826, 0, 0]
[0, 1.1697243622368718e-07, 9.809900962392415, 0.04408098429805422, 89.99640040130826, 0, 0]
[0, 1.169732828741514e-07, 9.809900962503626, 0.044080984210555355, 89.99640040130826, 0, 0]
[0, 1.1697313388268291e-07, 9.809900962576727, 0.04408098416634841, 89.99640040130826, 0, 0]
[0, 1.1697230201048974e-07, 9.809900962554378, 0.04408098438760576, 89.99640040130826, 0, 0]
[0, 1.1697297481651572e-07, 9.809900962596485, 0.04408098427744425, 89.99640040130826, 0, 0]
[0, 1.1697264804545457e-07, 9.809900962570811, 0.04408098431454937, 89.99640040130826, 0, 0]
[0, 1.1697324838596393e-07, 9.809900962561786, 0.04408098422218009, 89.99640040130826, 0, 0]
[0, 1.1697278554500584e-07, 9.809900962492055, 0.044080984275715336, 89.99640040130826, 0, 0]
[0, 1.1697242348866564e-07, 9.809900962381152, 0.04408098441383821, 89.99640040130826, 0, 0]
[0, 1.1697318865618595e-07, 9.809900962307216, 0.04408098438112692, 89.99640040130826, 0, 0]
[0, 1.1697305985253476e-07, 9.809900962220224, 0.04408098435360383, 89.99640040130826, 0, 0]
[0, 1.1697260958321817e-07, 9.809900962121272, 0.04408098430928329, 89.99640040130826, 0, 0]
[0, 1.1697288058010047e-07, 9.809900962013653, 0.04408098428907735, 89.99640040130826, 0, 0]
[0, 1.1697275838699226e-07, 9.809900961930735, 0.044080984115518945, 89.99640040130826, 0, 0]
[0, 1.1697324871417679e-07, 9.809900961797844, 0.044080984148933904, 89.99640040130826, 0, 0]
[0, 1.1697267338590231e-07, 9.809900961670225, 0.044080984159405256, 89.99640040130826, 0, 0]
[0, 1.1697310026952425e-07, 9.809900961545567, 0.04408098412956528, 89.99640040130826, 0, 0]
[0, 1.1697258091169806e-07, 9.809900961393705, 0.04408098425084393, 89.99640040130826, 0, 0]
[0, 1.1697302796378675e-07, 9.809900961295298, 0.04408098420069249, 89.99640040130826, 0, 0]
[0, 1.1697249549837836e-07, 9.809900961227575, 0.04408098399607471, 89.99640040130826, 0, 0]
[0, 1.1697291679566676e-07, 9.809900961085685, 0.04408098415422626, 89.99640040130826, 0, 0]
[0, 1.1697311135082294e-07, 9.809900961001262, 0.04408098409382882, 89.99640040130826, 0, 0]
[0, 1.169725566730024e-07, 9.809900960890744, 0.0440809841939938, 89.99640040130826, 0, 0]
[0, 1.169727119107714e-07, 9.809900960864095, 0.044080983974166627, 89.99640040130826, 0, 0]
[0, 1.169734672548226e-07, 9.80990096079466, 0.04408098399656316, 89.99640040130826, 0, 0]
[0, 1.1697272005917916e-07, 9.809900960704873, 0.044080984105366525, 89.99640040130826, 0, 0]
[0, 1.1697238948153126e-07, 9.809900960671326, 0.04408098405223768, 89.99640040130826, 0, 0]
[0, 1.1697295344760548e-07, 9.809900960643446, 0.044080984028806516, 89.99640040130826, 0, 0]
[0, 1.1697288175805304e-07, 9.809900960590289, 0.04408098412094141, 89.99640040130826, 0, 0]
[0, 1.1697317513614871e-07, 9.8099009606215, 0.04408098393546141, 89.99640040130826, 0, 0]
[0, 1.1697282043248889e-07, 9.809900960609541, 0.044080983958526936, 89.99640040130826, 0, 0]
[0, 1.1697237506892267e-07, 9.809900960637405, 0.044080983823136625, 89.99640040130826, 0, 0]
[0, 1.1697321708922712e-07, 9.809900960627633, 0.0440809838913339, 89.99640040130826, 0, 0]
[0, 1.169726790217216e-07, 9.809900960631417, 0.04408098392638358, 89.99640040130826, 0, 0]
[0, 1.1697318077075975e-07, 9.809900960613803, 0.04408098407452304, 89.99640040130826, 0, 0]
[0, 1.1697278404164024e-07, 9.809900960619512, 0.04408098417608465, 89.99640040130826, 0, 0]
[0, 1.1697258710539146e-07, 9.809900960702581, 0.04408098396658022, 89.99640040130826, 0, 0]
[0, 1.1697312218010608e-07, 9.809900960704368, 0.044080984128501866, 89.99640040130826, 0, 0]
[0, 1.1697293449768395e-07, 9.809900960755984, 0.04408098407940722, 89.99640040130826, 0, 0]
[0, 1.1697276248868611e-07, 9.809900960804377, 0.044080984062044026, 89.99640040130826, 0, 0]
[0, 1.1697273452557128e-07, 9.809900960882665, 0.044080983931565114, 89.99640040130826, 0, 0]
[0, 1.1697285725503007e-07, 9.809900960913454, 0.04408098398036164, 89.99640040130826, 0, 0]
[0, 1.169729426692662e-07, 9.809900960948484, 0.044080984013253846, 89.99640040130826, 0, 0]
[0, 1.1697266336295639e-07, 9.809900960985825, 0.044080984035549164, 89.99640040130826, 0, 0]
[0, 1.1697323903982636e-07, 9.809900961022342, 0.04408098403549642, 89.99640040130826, 0, 0]
[0, 1.1697266910036699e-07, 9.809900961059151, 0.044080984071707185, 89.99640040130826, 0, 0]
[0, 1.169726673361514e-07, 9.809900961095618, 0.04408098408163581, 89.99640040130826, 0, 0]
[0, 1.1699733757827177e-07, 9.809900961145607, 0.04408098402694946, 89.99640040130826, 0, 0]
[0, 1.169534977756993e-07, 9.809900961185368, 0.04408098399705231, 89.99640040130826, 0, 0]
[0, 1.1696471204616468e-07, 9.80990096117113, 0.0440809841747346, 89.99640040130826, 0, 0]
[0, -3.646098651959378e-06, 10.202524670178178, -1.374023918785466, 89.99640040130826, 0, 0]
[0, -6.843633168818085e-06, 10.478516298230256, -2.57900994734711, 89.86155086186882, 0, 0]
[0, -9.035049546891067e-06, 10.626362006987998, -3.4048412857478185, 89.72495544314957, 0, 0]
[0, -1.026820476993751e-05, 10.657729945826999, -3.869552447547842, 89.58642749732718, 0, 0]
[0, -1.0789464995907955e-05, 10.60455030242702, -4.065988169904813, 89.44604517431925, 0, 0]
[0, -1.0879482943194764e-05, 10.501167090487524, -4.099910271804742, 89.30427532930157, 0, 0]
[0, -1.0768842048473362e-05, 10.375345820674921, -4.058217791321236, 89.16165822708251, 0, 0]
[0, -1.061074117281544e-05, 10.245625242137958, -3.998627430536951, 89.01864106118205, 0, 0]
[0, -1.0486279264220582e-05, 10.122224057997895, -3.9517333491956395, 88.87552263464323, 0, 0]
[0, -1.0424151493991551e-05, 10.009378222694664, -3.9283224846429814, 88.73246253982364, 0, 0]
[0, -1.0421709681801305e-05, 9.907791960279962, -3.9274120304915527, 88.58951807319794, 0, 0]
[0, -1.0462401399894427e-05, 9.816567044797377, -3.942739853561211, 88.44668535862621, 0, 0]
[0, -1.0526845820941734e-05, 9.73443866178845, -3.967019223778918, 88.30393279475399, 0, 0]
[0, -1.0598873060366748e-05, 9.660400958178942, -3.994162398617827, 88.16122311885525, 0, 0]
[0, -1.0667551247959997e-05, 9.593903901576365, -4.020043041850484, 88.01852503320107, 0, 0]
[0, -1.0726880619841312e-05, 9.534806191762222, -4.042403045736195, 87.87581727391215, 0, 0]
[0, -1.0774592194917614e-05, 9.483227186355709, -4.060384003690705, 87.7330882223651, 0, 0]
[0, -1.0810707724770438e-05, 9.439388003019355, -4.0739932275907265, 87.59033353597603, 0, 0]
[0, -1.0836372371534282e-05, 9.40348640832806, -4.083662932683254, 87.44755340745749, 0, 0]
[0, -1.0853028563100015e-05, 9.375618554080363, -4.08995418163621, 87.3047502837003, 0, 0]
[0, -1.0862217006317294e-05, 9.355742927884265, -4.093395658861176, 87.16192732202958, 0, 0]
[0, -1.0864922685540104e-05, 9.343674730090385, -4.09442123675199, 87.01908753997348, 0, 0]
[0, -1.0862115217401944e-05, 9.339098282470168, -4.093366667590114, 86.87623347730445, 0, 0]
[0, -1.0854488546279006e-05, 9.341587635823048, -4.090493331236351, 86.73336716699458, 0, 0]
[0, -1.0842614714882477e-05, 9.350628973661184, -4.086017977485274, 86.59049024990176, 0, 0]
[0, -1.0827009291105503e-05, 9.36564144231114, -4.080137411408249, 86.44760412347523, 0, 0]
[0, -1.0808186703888871e-05, 9.385995181245017, -4.073044274775683, 86.30471006659779, 0, 0]
[0, -1.078667018311775e-05, 9.411026564553554, -4.06493430895854, 86.16180931971684, 0, 0]
[0, -1.0762982765844025e-05, 9.440051195247147, -4.056007340137385, 86.01890312174916, 0, 0]
[0, -1.0737657557680275e-05, 9.472375282796564, -4.046464570630883, 85.87599271464222, 0, 0]
[0, -1.0711225481337153e-05, 9.507305900016467, -4.036504309526241, 85.73307932907773, 0, 0]
[0, -1.0684191720648839e-05, 9.544160413278846, -4.026317561519275, 85.5901641620318, 0, 0]
[0, -1.0657042339096899e-05, 9.58227520402777, -4.016084244657835, 85.44724835352396, 0, 0]
[0, -1.0630203344140178e-05, 9.621013673805825, -4.0059703115804455, 85.3043329667796, 0, 0]
[0, -1.0604079313564267e-05, 9.659773463649014, -3.996125767418249, 85.16141897301488, 0, 0]
[0, -1.0579023113481516e-05, 9.69799279893233, -3.986683434412885, 85.01850724108945, 0, 0]
[0, -1.055533742457642e-05, 9.735155885458651, -3.9777582951938486, 84.8755985311235, 0, 0]
[0, -1.0533283549720728e-05, 9.77079730570904, -3.9694472570936967, 84.73269349140575, 0, 0]
[0, -1.0513067777206998e-05, 9.804505397653239, -3.9618292391045418, 84.58979265761282, 0, 0]
[0, -1.0494855357164309e-05, 9.835924621869852, -3.9549655064008653, 84.44689645395727, 0, 0]
[0, -1.047876306496304e-05, 9.86475694825611, -3.948900221460391, 84.30400519592742, 0, 0]
[0, -1.0464859290677064e-05, 9.890762308146117, -3.943661186889227, 84.1611190942979, 0, 0]
[0, -1.0453184774281892e-05, 9.913758170978022, -3.939260767410517, 84.01823826028787, 0, 0]
[0, -1.0443725387135622e-05, 9.933618312835067, -3.9356969741779952, 83.87536271197466, 0, 0]
[0, -1.0436448572389375e-05, 9.950270849392796, -3.932954688707444, 83.73249238156447, 0, 0]
[0, -1.0431280189021197e-05, 9.963695613038999, -3.9310070079350425, 83.58962712348965, 0, 0]
[0, -1.0428094818400733e-05, 9.973920953241374, -3.929816674050246, 83.44676672330203, 0, 0]
[0, -1.0426872596507015e-05, 9.981020045458758, -3.9293375651751203, 83.3039109069334, 0, 0]
[0, -1.0427332680559577e-05, 9.98510679182196, -3.9295162098656022, 83.16105935027768, 0, 0]
[0, -1.0429390656870681e-05, 9.986331400196846, -3.9302933008256797, 83.01821168884943, 0, 0]
[0, -1.0432866025481238e-05, 9.98487572439991, -3.93160517313982, 82.87536752728944, 0, 0]
[0, -1.0437591383983063e-05, 9.980948449884407, -3.933385228286517, 82.7325264486559, 0, 0]
[0, -1.0443374010848433e-05, 9.974780204022855, -3.9355652781205017, 82.58968802324112, 0, 0]
[0, -1.045003702149845e-05, 9.966618668258757, -3.9380767948030364, 82.44685181671477, 0, 0]
[0, -1.0457403128511984e-05, 9.956723762933278, -3.94085204838233, 82.30401739779256, 0, 0]
[0, -1.0465294223035023e-05, 9.94536297219427, -3.943825125749672, 82.16118434491004, 0, 0]
[0, -1.0473541220447168e-05, 9.932806869240544, -3.946932823582611, 82.01835225228406, 0, 0]
[0, -1.0481985981658209e-05, 9.91932489524594, -3.950115410921359, 81.87552073504052, 0, 0]
[0, -1.0490481933193952e-05, 9.905181439200728, -3.953317263410212, 81.73268943343913, 0, 0]
[0, -1.0498894480032227e-05, 9.890632256745166, -3.956487367477859, 81.58985801645511, 0, 0]
[0, -1.0507100587142788e-05, 9.875921261035346, -3.959579704735823, 81.44702618428957, 0, 0]
[0, -1.0514994539343396e-05, 9.861277707912024, -3.9625535165923145, 81.30419367034403, 0, 0]
[0, -1.0522473801855555e-05, 9.84691379284278, -3.965373461850497, 81.16136024229195, 0, 0]
[0, -1.0529470454274035e-05, 9.833022667821275, -3.9680096729683045, 81.01852570266036, 0, 0]
[0, -1.0535913447105356e-05, 9.819776880409677, -3.970437721710033, 80.87568988858494, 0, 0]
[0, -1.054175292961505e-05, 9.807327229872019, -3.972638503703392, 80.73285267125901, 0, 0]
[0, -1.054695300200801e-05, 9.795802029319708, -3.9745980507376166, 80.59001395480082, 0, 0]
[0, -1.0551485804771273e-05, 9.785306758117205, -3.97630728442174, 80.44717367466158, 0, 0]
[0, -1.055534909927396e-05, 9.775924081799372, -3.977761715711966, 80.30433179584998, 0, 0]
[0, -1.0558528548927335e-05, 9.767714215420101, -3.978961105622773, 80.16148831074321, 0, 0]
[0, -1.0561047886356623e-05, 9.760715599270913, -3.97990909003363, 80.01864323676044, 0, 0]
[0, -1.0562914177748671e-05, 9.75494585689739, -3.98061278384927, 79.87579661383707, 0, 0]
[0, -1.0564159499716227e-05, 9.750402999537728, -3.981082366951217, 79.732948501838, 0, 0]
[0, -1.056481770512442e-05, 9.747066842335306, -3.9813306626291145, 79.59009897789413, 0, 0]
[0, -1.0564930072332634e-05, 9.744900595730941, -3.981372714649116, 79.44724813369322, 0, 0]
[0, -1.0564538740603045e-05, 9.74385259494954, -3.981225367347261, 79.30439607281635, 0, 0]
[0, -1.0563693749203831e-05, 9.74385813282473, -3.980906859378645, 79.1615429081817, 0, 0]
[0, -1.0562446918735921e-05, 9.744841358893137, -3.9804364281939018, 79.01868875954972, 0, 0]
[0, -1.0560847087474017e-05, 9.746717213229022, -3.9798339383694676, 78.87583375108909, 0, 0]
[0, -1.0558949245816507e-05, 9.749393361537775, -3.9791195306452707, 78.732978009188, 0, 0]
[0, -1.0556834621932361e-05, 9.752772102794694, -3.9783132979016806, 78.59012166035718, 0, 0]
[0, -1.0554437836108851e-05, 9.75675222232227, -3.9774349902640247, 78.44726482934698, 0, 0]
[0, -6.194143088062086e-06, 9.307177450583252, -2.3342553405106035, 78.30440763744845, 0, 0]
[0, 6.805958547292348e-07, 8.663086328472536, 0.2564830208717579, 78.31772103133996, 0, 0]
[0, 5.9170293773491084e-06, 8.265978113298377, 2.229824449336821, 78.4465834413303, 0, 0]
[0, 9.199343632572829e-06, 8.111953912683038, 3.4667560337986196, 78.57914971226218, 0, 0]
[0, 1.0851120860087246e-05, 8.154320000075542, 4.089225822854256, 78.71548842162696, 0, 0]
[0, 1.1402339150644782e-05, 8.326418894219776, 4.296958645508616, 78.85499704419365, 0, 0]
[0, 1.1354688331530265e-05, 8.566971417055306, 4.2789934894043204, 78.99666045127888, 0, 0]
[0, 1.1079221025013631e-05, 8.83076483533396, 4.17518099385891, 79.13950755397846, 0, 0]
[0, 1.0799658101565289e-05, 9.089934567448168, 4.0698272640723205, 79.28281512423611, 0, 0]
[0, 1.0618882055021305e-05, 9.330584425665648, 4.001703004682741, 79.42614433721627, 0, 0]
[0, 1.0559433162529608e-05, 9.548035372170848, 3.9792999349023224, 79.56929134123676, 0, 0]
[0, 1.060100657546142e-05, 9.74254774479791, 3.994969398405592, 79.71220952369087, 0, 0]
[0, 1.0707914279182898e-05, 9.91626087496335, 4.035255073670288, 79.85493675089745, 0, 0]
[0, 1.0845373925918258e-05, 10.071409998702322, 4.087058034980383, 79.9975418395625, 0, 0]
[0, 1.0987013928685206e-05, 10.209549464084722, 4.140434632072323, 80.14009239669595, 0, 0]
[0, 1.1116367528282485e-05, 10.331421156824232, 4.1891810230635045, 80.2826400521354, 0, 0]
[0, 8.609887437419438e-06, 10.711003887738382, 3.244618881232246, 80.42521719550476, 0, 0]
[0, 4.551631237538884e-06, 11.194641104841663, 1.7152735547716174, 80.47413287633358, 0, 0]
[0, 1.458195791808783e-06, 11.513629182303612, 0.5495180003373679, 80.45301380849604, 0, 0]
[0, -4.7159503848459116e-07, 11.669593775293523, -0.17772003757101665, 80.42960896903061, 0, 0]
[0, -1.4286950863428412e-06, 11.690669921400385, -0.5384005969115961, 80.40400060903531, 0, 0]
[0, -1.7320196725103804e-06, 11.617510797702272, -0.6527085216101777, 80.37663710602612, 0, 0]
